ACCELEROMETER X (m/s²),ACCELEROMETER Y (m/s²),ACCELEROMETER Z (m/s²),GRAVITY X (m/s²),GRAVITY Y (m/s²),GRAVITY Z (m/s²),LINEAR ACCELERATION X (m/s²),LINEAR ACCELERATION Y (m/s²),LINEAR ACCELERATION Z (m/s²),GYROSCOPE X (rad/s),GYROSCOPE Y (rad/s),GYROSCOPE Z (rad/s),LIGHT (lux),MAGNETIC FIELD X (μT),MAGNETIC FIELD Y (μT),MAGNETIC FIELD Z (μT),ORIENTATION Z (azimuth °),ORIENTATION X (pitch °),ORIENTATION Y (roll °),PROXIMITY (i),ATMOSPHERIC PRESSURE (hPa),SOUND LEVEL (dB),LOCATION Latitude : ,LOCATION Longitude : ,LOCATION Altitude ( m),LOCATION Altitude-google ( m),LOCATION Altitude-atmospheric pressure ( m),LOCATION Speed ( Kmh),LOCATION Accuracy ( m),LOCATION ORIENTATION (°),Satellites in range,Time since start in ms ,YYYY-MO-DD HH-MI-SS_SSS
-0.899,6.517,7.6303,-0.1963,6.088,7.6856,-0.6297,0.4709,0.9348,0.1278,-0.1822,0.1619,889.0,28.86,-8.7,-36.3,299.29,-38.37,1.46,3.1,1009.05,55.245,42.358986,-71.10883,,11.68984745871345,,,93.893555,,3 / 19,17,2015-08-25 14:32:43:035
0.0227,6.432,6.9755,-0.0607,6.3306,7.4893,-0.0063,0.0571,-0.7041,0.1278,-0.1822,0.1619,860.0,28.86,-8.7,-36.3,299.29,-38.37,1.46,3.1,1009.07,55.245,42.358986,-71.10883,,11.68984745871345,,,93.893555,,3 / 19,123,2015-08-25 14:32:43:141
0.6871,6.5386,8.6646,0.2822,6.2213,7.5753,0.4049,0.3172,1.0893,-0.1736,-0.2961,-0.0373,758.0,28.68,-8.7,-36.3,299.91,-40.21,0.46,3.1,1009.08,55.245,42.358986,-71.10883,,11.68984745871345,,,93.893555,,3 / 19,229,2015-08-25 14:32:43:247
0.7985,5.7497,9.1494,0.3474,6.344,7.4702,1.064,-0.0149,1.0843,0.245,-0.032,0.1854,758.0,28.02,-8.64,-36.72,298.35,-39.38,-2.13,3.1,1009.08,59.063,42.358986,-71.10883,,11.68984745871345,,,93.893555,,3 / 19,335,2015-08-25 14:32:43:353
-0.182,6.9252,7.1599,0.468,6.9625,6.8902,0.9493,-0.3449,0.2266,0.7819,-0.2684,0.0437,708.0,26.88,-8.64,-37.32,299.5,-40.31,-2.66,3.1,1009.08,59.063,42.358986,-71.10883,,11.68984745871345,,,93.893555,,3 / 19,441,2015-08-25 14:32:43:459
0.4034,7.8231,4.9081,0.2825,7.6111,6.1775,-0.5985,-0.0574,-1.2179,0.5902,0.0788,-0.147,708.0,25.62,-8.82,-37.86,304.13,-45.23,-3.89,3.1,1009.08,59.063,42.358986,-71.10883,,11.68984745871345,,,93.893555,,3 / 19,547,2015-08-25 14:32:43:565
0.8691,7.8997,3.3327,0.1574,7.6955,6.0766,0.7117,0.2042,-2.7438,-0.2823,-0.0756,0.0511,680.0,24.36,-9.48,-38.28,311.73,-50.91,-2.62,3.1,1009.04,58.658,42.358986,-71.10883,,11.68984745871345,,,93.893555,,3 / 19,653,2015-08-25 14:32:43:671
0.4561,6.098,7.5753,0.4877,6.4845,7.3406,-0.1801,-0.0824,1.2031,-1.3891,-0.5209,-0.1161,680.0,23.58,-10.56,-38.4,312.02,-51.7,-1.48,3.1,1009.04,58.658,42.358986,-71.10883,,11.68984745871345,,,93.893555,,3 / 19,759,2015-08-25 14:32:43:777
1.6963,5.934,6.7325,0.4877,6.4845,7.3406,-0.1801,-0.0824,1.2031,1.0994,-1.2069,-0.0043,661.0,23.4,-11.64,-38.28,300.6,-41.39,-3.8,3.1,1009.08,58.658,42.358986,-71.10883,,11.68984745871345,,,93.893555,,3 / 19,864,2015-08-25 14:32:43:882
0.8308,7.3011,7.2293,1.2064,6.7097,7.0495,-0.2798,0.0156,-0.4618,0.0213,-0.4623,-0.2653,480.0,23.28,-12.3,-38.22,296.06,-43.17,-9.71,3.1,1009.09,50.449,42.358986,-71.10883,,11.68984745871345,,,93.893555,,3 / 19,970,2015-08-25 14:32:43:988
0.6357,6.9216,6.5936,0.9435,7.0115,6.7911,-0.3042,-0.0779,-1.0666,0.0213,-0.4623,-0.2653,480.0,23.28,-12.3,-38.22,296.06,-43.17,-9.71,3.1,1009.09,50.449,42.358986,-71.10883,,11.68984745871345,,,93.893555,,3 / 19,1076,2015-08-25 14:32:44:094
-0.6967,5.6084,8.7736,1.0459,6.4246,7.3349,-1.3201,-0.3242,2.0037,-1.0173,-0.1971,-0.1662,443.0,23.04,-12.42,-38.22,300.13,-45.64,-7.91,3.1,1009.06,50.449,42.358986,-71.10883,,11.68984745871345,,,93.893555,,3 / 19,1182,2015-08-25 14:32:44:200
-0.1844,5.8239,9.3458,0.6717,5.8715,7.8259,-0.8561,-0.0476,1.5198,-0.718,0.7595,0.1065,443.0,22.08,-11.64,-38.64,297.48,-40.93,-8.12,3.1,1009.06,50.497,42.358986,-71.10883,,11.68984745871345,,,93.893555,,3 / 19,1288,2015-08-25 14:32:44:306
-1.2725,4.1276,11.2001,0.3987,5.1444,8.3395,-2.1489,-2.4796,2.8618,-0.7926,0.1374,-1.2059,575.0,20.94,-10.26,-39.24,300.31,-36.78,-4.91,3.1,1009.02,50.497,42.358986,-71.10883,,11.68984745871345,,,93.893555,,3 / 19,1394,2015-08-25 14:32:44:412
1.3767,5.5761,6.2321,0.2876,5.9381,7.7992,-0.0996,-0.2662,1.7681,0.8842,-0.278,-0.8458,590.0,19.92,-8.64,-40.02,300.31,-31.64,-2.74,3.1,1009.06,50.497,42.358986,-71.10883,,11.68984745871345,,,93.893555,,3 / 19,1500,2015-08-25 14:32:44:518
-0.0862,7.4484,5.5174,0.3227,6.5716,7.2718,0.2747,0.4697,-0.2377,0.2866,-0.1055,-0.1278,590.0,19.14,-6.54,-40.74,312.55,-37.27,-2.11,3.1,1009.06,50.497,42.359245,-71.10849,-125.81,11.68984745871345,,0.0,312.90323,,3 / 19,1606,2015-08-25 14:32:44:624
-0.5698,6.2453,7.0749,0.3439,6.7236,7.1306,-0.4612,0.0041,-0.0916,0.1449,-0.1843,-0.2035,526.0,19.08,-4.98,-41.16,318.09,-42.08,-2.54,3.1,1009.07,50.499,42.359245,-71.10849,-125.81,11.68984745871345,,0.0,312.90323,,3 / 19,1712,2015-08-25 14:32:44:730
-0.6117,6.5206,7.021,0.3439,6.7236,7.1306,-0.4612,0.0041,-0.0916,0.0874,-0.1598,-0.1459,526.0,19.2,-4.08,-41.34,319.51,-43.28,-2.76,3.1,1009.07,50.499,42.359245,-71.10849,-125.81,11.68984745871345,,0.0,312.90323,,4 / 19,1819,2015-08-25 14:32:44:837
0.4465,6.7505,6.6679,0.5366,6.809,7.037,0.1709,-0.0238,-0.4997,-0.1172,0.0533,-0.1332,444.0,19.14,-3.96,-41.34,318.0,-43.97,-4.36,3.1,1009.06,50.008,42.359245,-71.10849,-125.81,11.131168980173971,,0.0,312.90323,,4 / 19,1925,2015-08-25 14:32:44:943
0.5938,6.9204,7.106,0.5304,6.8469,7.0007,-0.3688,-0.2784,-0.3197,-0.1172,0.0533,-0.1332,419.0,19.14,-3.96,-41.34,318.0,-43.97,-4.36,3.1,1009.05,50.008,42.359245,-71.10849,-125.81,10.9525623526059,,0.0,312.90323,,4 / 19,2031,2015-08-25 14:32:45:049
-0.4681,6.5326,7.0306,0.3893,6.788,7.067,-0.5138,-0.1297,-0.1466,0.0117,-0.0714,-0.1278,419.0,18.54,-4.68,-41.4,317.39,-44.28,-4.33,3.1,1009.05,50.008,42.359245,-71.10849,-125.81,10.9525623526059,,0.0,312.90323,,4 / 19,2137,2015-08-25 14:32:45:155
-0.5878,6.3698,7.1658,0.3263,6.7143,7.1402,0.1429,0.029,0.4327,-0.1726,0.0511,-0.0341,428.0,17.52,-5.4,-41.52,320.65,-43.8,-3.15,3.1,1009.09,50.175,42.359245,-71.10849,-125.81,10.9525623526059,,0.0,312.90323,,4 / 19,2243,2015-08-25 14:32:45:261
0.2131,6.687,7.0378,0.4352,6.7886,7.0637,-0.1862,-0.0549,-0.7059,0.0831,-0.228,0.0138,428.0,16.44,-6.12,-41.58,323.11,-43.21,-2.62,3.1,1009.09,50.175,42.359245,-71.10849,-125.81,10.9525623526059,,0.0,312.90323,,4 / 19,2349,2015-08-25 14:32:45:367
0.2622,6.699,7.2365,0.6554,6.743,7.0903,0.1562,-0.0201,0.0013,-0.0533,-0.1012,-0.0107,402.0,15.42,-6.6,-41.7,323.04,-43.81,-3.53,3.1,1009.11,50.175,42.359245,-71.10849,-125.81,10.9525623526059,,0.0,312.90323,,4 / 19,2455,2015-08-25 14:32:45:473
0.3795,6.7325,6.5529,0.8271,6.7387,7.0764,0.3102,0.4355,-0.2625,-0.0639,-0.425,-0.1342,384.0,14.7,-6.66,-41.88,320.4,-43.44,-5.28,3.1,1009.09,51.385,42.359245,-71.10849,-125.81,10.9525623526059,,0.0,312.90323,,4 / 19,2561,2015-08-25 14:32:45:579
1.2965,6.6774,7.4915,0.7551,6.5655,7.2453,0.8946,0.3058,-0.7977,-0.0224,0.506,-0.1459,384.0,14.16,-6.54,-42.12,320.1,-43.41,-6.67,3.1,1009.09,51.385,42.359245,-71.10849,-125.81,10.9525623526059,,0.0,312.90323,,4 / 19,2667,2015-08-25 14:32:45:685
0.6404,6.3925,7.8482,0.7551,6.5655,7.2453,0.8946,0.3058,-0.7977,-0.066,-1.0077,-0.3047,402.0,13.5,-6.18,-42.42,320.96,-42.03,-5.95,3.1,1009.07,51.385,42.359245,-71.10849,-125.81,10.9525623526059,,0.0,312.90323,,4 / 19,2773,2015-08-25 14:32:45:791
1.7789,6.4799,7.8662,1.1546,6.5482,7.2082,0.6243,-0.0683,0.6579,-0.066,-1.0077,-0.3047,402.0,13.5,-6.18,-42.42,320.96,-42.03,-5.95,3.1,1009.07,51.385,42.359245,-71.10849,-125.81,10.9525623526059,,0.0,312.90323,,4 / 19,2879,2015-08-25 14:32:45:897
1.6328,5.764,7.9835,1.6728,6.3884,7.2499,-0.265,-0.7129,1.2818,-0.4858,-0.8725,-0.4474,402.0,12.36,-5.46,-42.9,321.4,-41.89,-9.1,3.1,1009.07,49.874,42.359245,-71.10849,-125.81,10.9525623526059,,0.0,312.90323,,4 / 19,2984,2015-08-25 14:32:46:002
1.6712,5.9221,8.0218,2.247,6.2874,7.1826,-0.589,-0.3462,1.0008,-0.1449,-0.9374,-0.2546,402.0,10.2,-4.56,-43.32,318.62,-40.65,-12.99,3.1,1009.07,49.874,42.359245,-71.10849,-125.81,10.9525623526059,,0.0,312.90323,,4 / 19,3090,2015-08-25 14:32:46:108
1.3815,5.8682,8.3881,2.4885,6.248,7.1372,-1.1071,-0.3798,1.2509,0.0959,-0.7105,-0.1257,321.0,6.96,-3.66,-43.56,316.1,-39.58,-19.22,3.1,1009.07,49.874,42.359245,-71.10849,-125.81,10.9525623526059,,0.0,312.90323,,4 / 19,3196,2015-08-25 14:32:46:214
1.3815,5.8682,8.3881,2.4885,6.248,7.1372,-1.1071,-0.3798,1.2509,0.0959,-0.7105,-0.1257,321.0,6.96,-3.66,-43.56,316.1,-39.58,-19.22,3.1,1009.07,49.763,42.359245,-71.10849,-125.81,10.9525623526059,,0.0,312.90323,,4 / 19,3302,2015-08-25 14:32:46:320
1.7645,-0.0646,2.2829,4.1781,6.4755,6.0648,-2.4136,-6.5402,-3.7819,0.6477,-1.1771,0.4037,321.0,4.86,-3.18,-43.68,320.27,-39.58,-19.22,3.1,1009.07,49.763,42.359245,-71.10849,-125.81,10.9525623526059,,0.0,312.90323,,4 / 19,3408,2015-08-25 14:32:46:426
14.8812,-2.8982,1.7298,4.1781,6.4755,6.0648,-2.4136,-6.5402,-3.7819,0.2653,-3.3407,3.7252,390.0,0.12,-2.7,-43.5,310.9,-41.32,-34.56,3.1,1009.02,49.763,42.359245,-71.10849,-125.81,10.9525623526059,,0.0,312.90323,,4 / 19,3515,2015-08-25 14:32:46:533
10.9319,-2.5702,-5.448,7.2886,4.9271,4.3325,9.1452,-7.344,-4.5372,1.3721,-2.6813,4.1375,390.0,-7.56,-3.06,-41.52,289.99,-30.16,-59.27,3.1,1009.02,50.551,42.359245,-71.10849,-125.81,10.9525623526059,,0.0,312.90323,,4 / 19,3621,2015-08-25 14:32:46:639
9.1901,-4.9105,-5.363,8.8979,3.1287,2.6849,0.2946,-7.5568,-6.0009,0.277,-3.7039,1.7097,519.0,-18.42,0.72,-35.16,288.86,-18.6,-73.21,0.0,1009.09,50.551,42.359245,-71.10849,-125.81,10.9525623526059,,0.0,312.90323,,4 / 19,3727,2015-08-25 14:32:46:745
12.1194,-2.0159,-9.4068,9.6112,1.8117,0.7153,1.5769,-5.0367,-10.5914,-0.7414,-0.2972,1.9185,0.0,-28.98,9.42,-24.9,302.53,-10.65,-85.74,0.0,1009.12,50.551,42.359245,-71.10849,-125.81,10.9525623526059,,0.0,312.90323,,4 / 19,3832,2015-08-25 14:32:46:850
11.57,-2.1548,-5.1571,9.793,0.3812,0.3493,1.777,-2.536,-5.5064,0.6136,1.4594,2.0624,0.0,-35.64,23.82,-9.9,341.07,-2.23,-87.96,0.0,1009.12,59.653,42.359245,-71.10849,-125.81,10.9525623526059,,0.0,312.90323,,4 / 19,3939,2015-08-25 14:32:46:957
7.7895,-5.6743,-4.4209,9.7467,-0.9106,0.5856,-0.6834,-5.7441,-3.4897,0.6967,0.0937,-0.163,1.0,-32.88,42.42,4.8,10.19,5.33,-86.56,0.0,1009.1,59.653,42.359245,-71.10849,-125.81,10.9525623526059,,0.0,312.90323,,4 / 19,4044,2015-08-25 14:32:47:062
9.8402,-4.7082,-5.1356,9.7669,-0.7552,0.4551,1.268,-5.3704,-4.4019,-0.1332,-0.1193,-3.4483,1.0,-23.76,57.72,15.78,16.97,4.42,-87.33,0.0,1009.1,59.653,42.359245,-71.10849,-125.81,10.9525623526059,,0.0,312.90323,,4 / 19,4151,2015-08-25 14:32:47:169
4.4365,-6.213,-0.3268,9.7851,0.6274,-0.1654,-5.6719,-6.6548,-3.2571,-0.081,-1.5425,-1.5223,1.0,-15.24,67.86,22.74,18.28,-3.67,-90.97,0.0,1009.16,54.997,42.359245,-71.10849,-125.81,10.9525623526059,,0.0,312.90323,,4 / 19,4257,2015-08-25 14:32:47:275
7.4316,-12.3493,-1.4509,9.776,0.7372,-0.2384,-2.3444,-13.0865,-1.2125,-0.081,-1.5425,-1.5223,4.0,-15.24,67.86,22.74,18.28,-3.67,-90.97,0.0,1009.12,54.997,42.359245,-71.10849,-125.81,10.9525623526059,,0.0,312.90323,,4 / 19,4363,2015-08-25 14:32:47:381
4.4209,-3.62,-7.3622,9.776,0.7372,-0.2384,-2.3444,-13.0865,-1.2125,2.5215,0.0629,5.174,4.0,-14.52,69.24,24.6,19.39,-4.31,-91.4,0.0,1009.12,54.997,42.359245,-71.10849,-125.81,10.9525623526059,,0.0,312.90323,,7 / 19,4468,2015-08-25 14:32:47:486
3.1472,-9.5074,-1.2462,9.7146,-1.1702,-0.6542,-2.0196,-1.813,-3.7679,-0.1161,-1.2123,-1.812,1.0,-18.06,68.46,23.16,18.44,6.85,-93.85,0.0,1009.11,62.159,42.359142,-71.108894,-87.1,10.9525623526059,,0.0,67.741936,,7 / 19,4574,2015-08-25 14:32:47:592
8.3438,-10.9116,-6.2896,9.7006,-0.5108,-1.3443,-3.6301,-6.7819,-3.1675,-0.9332,-0.3984,-0.2258,1.0,-19.98,70.2,18.78,13.16,2.99,-97.89,0.0,1009.11,62.159,42.359142,-71.108894,-87.1,10.9525623526059,,0.0,67.741936,,7 / 19,4681,2015-08-25 14:32:47:699
5.1643,-6.0418,-4.0689,9.7051,-0.5737,-1.2855,4.3609,0.0541,-6.3832,-0.0405,-0.8075,-2.6056,3.0,-22.2,70.68,16.92,11.37,3.35,-97.55,0.0,1009.1,62.159,42.359142,-71.108894,-87.1,10.9525623526059,,0.0,67.741936,,7 / 19,4786,2015-08-25 14:32:47:804
7.5046,-2.7054,-5.2768,9.5906,0.6546,-1.9396,-2.9946,-4.5547,-1.7199,-0.9023,1.0184,-1.5617,3.0,-21.78,73.32,15.0,7.91,-3.83,-101.43,0.0,1009.1,58.066,42.359142,-71.108894,-87.1,10.9525623526059,,0.0,67.741936,,7 / 19,4893,2015-08-25 14:32:47:911
9.1016,-2.0722,-2.9652,9.53,1.447,-1.8043,-0.4284,-3.5192,-1.1609,0.5316,0.1832,0.5529,0.0,-28.56,69.84,13.32,5.71,-8.48,-100.72,0.0,1009.12,58.066,42.359142,-71.108894,-87.1,10.9525623526059,,0.0,67.741936,,7 / 19,4998,2015-08-25 14:32:48:016
8.6335,-1.1432,-3.2166,9.6045,0.9164,-1.7564,-2.7558,-4.1581,-3.5061,0.6317,0.6999,2.236,0.0,-40.5,61.02,14.34,5.81,-5.36,-100.36,0.0,1009.16,58.066,42.359142,-71.108894,-87.1,10.9525623526059,,0.0,67.741936,,7 / 19,5104,2015-08-25 14:32:48:122
8.0421,-5.1691,-4.6268,9.6272,-0.732,-1.7177,-1.3181,-4.0097,-0.2742,0.6317,0.6999,2.236,0.0,-40.5,61.02,14.34,5.81,-5.36,-100.36,0.0,1009.16,64.276,42.359142,-71.108894,-87.1,10.9525623526059,,0.0,67.741936,,7 / 19,5211,2015-08-25 14:32:48:229
8.9531,-3.9241,-0.2059,9.4669,-1.3795,-2.155,-0.8311,0.1788,-2.4395,0.196,0.1715,1.9111,0.0,-49.86,54.12,12.48,3.47,4.28,-100.12,0.0,1009.15,64.276,42.359142,-71.108894,-87.1,10.9525623526059,,0.0,67.741936,,7 / 19,5317,2015-08-25 14:32:48:335
6.8881,-1.8615,-5.6324,9.4669,-1.3795,-2.155,-0.8311,0.1788,-2.4395,-0.294,-0.2322,-0.9172,0.0,-52.26,51.66,7.26,353.9,8.09,-102.82,0.0,1009.15,64.276,42.359142,-71.108894,-87.1,10.9525623526059,,0.0,67.741936,,7 / 19,5422,2015-08-25 14:32:48:440
10.835,-4.6076,-6.6822,9.5267,-0.3806,-2.2951,-2.4518,-5.1141,-0.2715,-2.4107,-0.0053,-2.9753,0.0,-47.28,54.72,2.88,351.35,2.22,-103.55,0.0,1009.16,57.851,42.359142,-71.108894,-87.1,10.9525623526059,,0.0,67.741936,,13 / 19,5529,2015-08-25 14:32:48:547
4.0713,-4.9763,-6.8342,9.4633,0.7992,-2.4449,-5.3919,-5.7756,-4.3894,1.7737,-2.1966,0.2344,0.0,-45.72,56.22,2.28,350.86,-4.67,-104.49,0.0,1009.14,57.851,42.359142,-71.108894,-87.1,10.9525623526059,,0.0,67.741936,,13 / 19,5634,2015-08-25 14:32:48:652
7.7033,-0.2131,-3.5542,9.1908,0.7952,-3.3267,-2.2895,-1.2453,-4.8818,0.0341,-0.4474,-0.5401,0.0,-46.26,55.44,3.9,348.49,-4.65,-109.9,0.0,1009.14,57.851,42.359142,-71.108894,-87.1,10.9525623526059,,0.0,67.741936,,13 / 19,5741,2015-08-25 14:32:48:759
8.4455,-2.2613,-5.6192,9.1501,0.7745,-3.4418,0.7009,-1.8507,-3.0525,-1.5436,2.0123,-0.066,0.0,-51.66,50.82,9.3,349.8,-4.53,-110.61,0.0,1009.14,53.283,42.359142,-71.108894,-87.1,10.9525623526059,,0.0,67.741936,,13 / 19,5846,2015-08-25 14:32:48:864
7.8961,-0.0778,-3.5985,9.3772,0.7747,-2.7637,-0.448,-1.5421,-0.739,-0.7414,0.0256,0.3409,0.0,-58.62,44.88,15.66,358.46,-4.53,-106.42,0.0,1009.14,53.283,42.359142,-71.108894,-87.1,10.9525623526059,,0.0,67.741936,,13 / 19,5953,2015-08-25 14:32:48:971
7.8961,-1.1684,-1.5634,9.3774,0.4782,-2.8296,-1.2251,-2.3876,-0.9377,0.457,0.1225,0.947,0.0,-60.54,41.94,17.7,359.51,-2.79,-106.79,0.0,1009.08,53.283,42.359142,-71.108894,-87.1,10.9525623526059,,0.0,67.741936,,13 / 19,6059,2015-08-25 14:32:49:077
17.1341,-9.4679,-6.948,8.9411,-2.6463,-3.037,8.193,-6.8216,-3.9109,0.457,0.1225,0.947,0.0,-60.54,41.94,17.7,359.51,-2.79,-106.79,0.0,1009.15,55.695,42.359142,-71.108894,-87.1,10.9525623526059,,0.0,67.741936,,13 / 19,6164,2015-08-25 14:32:49:182
10.4986,-9.9922,-12.5492,8.9411,-2.6463,-3.037,8.193,-6.8216,-3.9109,3.134,-3.6997,3.51,0.0,-60.72,40.8,18.0,353.42,15.66,-108.76,0.0,1009.15,55.695,42.359142,-71.108894,-87.1,10.9525623526059,,0.0,67.741936,,13 / 19,6270,2015-08-25 14:32:49:288
1.2055,-8.7759,-6.456,3.4957,-7.7708,-4.8543,14.1088,4.6069,-17.4764,-1.0312,-2.0102,1.159,43.0,-55.56,45.3,16.74,255.15,52.41,-144.24,3.1,1009.14,55.695,42.359142,-71.108894,-87.1,10.9525623526059,,0.0,67.741936,,13 / 19,6377,2015-08-25 14:32:49:395
-5.2301,-21.0941,1.166,1.6531,-5.8696,-7.6802,14.1762,3.7279,-4.5877,-8.8374,6.5333,-5.6022,43.0,-40.92,51.3,7.14,309.3,36.76,-167.85,3.1,1009.14,53.118,42.359135,-71.108894,-93.55,10.9525623526059,,0.0,70.96774,,7 / 19,6482,2015-08-25 14:32:49:500
2.7186,0.3531,-1.7909,8.5247,2.3123,-4.2606,-0.0205,-4.3354,-10.3895,-2.1838,7.8073,-3.1383,515.0,-31.62,50.58,3.96,349.29,-13.64,-116.56,3.1,1009.07,53.118,42.359135,-71.108894,-93.55,10.9525623526059,,0.0,70.96774,,7 / 19,6589,2015-08-25 14:32:49:607
6.9863,7.5298,-0.5614,8.0302,4.7959,2.9472,3.3686,1.0352,-5.8585,-1.1409,2.5747,-0.6115,297.0,-26.46,40.38,-4.62,5.11,-29.28,-69.85,3.1,1009.07,53.118,42.359135,-71.108894,-93.55,10.9525623526059,,0.0,70.96774,,7 / 19,6695,2015-08-25 14:32:49:713
-1.2151,2.7904,1.6269,6.7792,4.6215,5.3716,-7.9943,-1.8311,-3.7447,1.8663,-3.6368,2.285,297.0,-22.98,23.88,-16.8,1.59,-28.12,-51.61,3.1,1009.07,52.867,42.359135,-71.108894,-93.55,10.9525623526059,,0.0,70.96774,,7 / 19,6801,2015-08-25 14:32:49:819
0.5423,-22.1919,-12.0907,9.6283,0.8934,-1.6332,1.1671,-24.4248,-4.1033,2.6056,-7.0148,10.0561,391.0,-28.02,6.84,-21.48,289.85,-5.23,-99.63,3.1,1009.12,52.867,42.359135,-71.108894,-93.55,10.9525623526059,,0.0,70.96774,,7 / 19,6907,2015-08-25 14:32:49:925
10.2759,-9.7444,-12.7048,4.1247,-6.9742,-5.5242,14.7273,0.3196,-2.9955,4.7926,-3.884,-0.1907,391.0,-31.44,2.88,-26.1,275.28,45.33,-143.25,0.0,1009.12,52.867,42.359135,-71.108894,-93.55,10.9525623526059,,0.0,70.96774,,7 / 19,7013,2015-08-25 14:32:50:031
8.3522,-7.8697,-8.9196,3.6461,-7.9196,-4.4895,12.164,4.381,-6.1085,4.7926,-3.884,-0.1907,8.0,-31.44,2.88,-26.1,275.28,45.33,-143.25,0.0,1009.09,60.361,42.359135,-71.108894,-93.55,10.9525623526059,,0.0,70.96774,,7 / 19,7118,2015-08-25 14:32:50:136
7.1551,-7.7405,-7.4962,3.6461,-7.9196,-4.4895,12.164,4.381,-6.1085,-0.8916,1.6224,-3.4355,8.0,-21.84,19.8,-22.26,294.93,53.86,-140.92,0.0,1009.09,60.361,42.359135,-71.108894,-93.55,10.9525623526059,,0.0,70.96774,,7 / 19,7224,2015-08-25 14:32:50:242
-0.8655,-10.5165,-3.4261,6.8611,-4.8879,-5.0204,0.2748,-3.3565,6.664,-1.2325,1.2677,-3.9479,0.0,-17.46,40.14,-10.86,328.67,29.9,-126.19,0.0,1009.09,60.361,42.359135,-71.108894,-93.55,10.9525623526059,,0.0,70.96774,,7 / 19,7330,2015-08-25 14:32:50:348
7.8087,0.6333,-8.1738,8.7033,-1.2472,-4.3436,-0.8946,1.8804,-3.8302,0.3164,-1.0312,-1.7438,0.0,-22.98,55.92,2.34,350.88,7.31,-116.52,0.0,1009.16,52.867,42.359135,-71.108894,-93.55,10.9525623526059,,0.0,70.96774,,7 / 19,7436,2015-08-25 14:32:50:454
0.3855,-2.6384,-4.7154,7.6805,0.2507,-6.0924,0.3856,0.7333,-1.1764,0.5167,-1.0589,-0.7169,0.0,-29.52,59.88,9.48,349.19,-1.47,-128.42,0.0,1009.16,52.867,42.359177,-71.1089,-58.06,10.9525623526059,,0.0,54.83871,,6 / 19,7543,2015-08-25 14:32:50:561
9.013,-1.9249,-5.6503,7.2464,1.3239,-6.4735,2.0874,1.9478,-2.9345,-1.0653,1.0876,-0.3366,0.0,-45.3,49.74,14.64,341.27,-7.76,-131.78,0.0,1009.09,52.867,42.359177,-71.1089,-58.06,10.9525623526059,,0.0,54.83871,,6 / 19,7649,2015-08-25 14:32:50:667
8.1199,2.0853,-5.023,7.989,0.4313,-5.6709,0.8803,-0.8,0.454,0.032,0.8234,-0.0341,0.0,-59.4,35.4,17.76,332.58,-2.52,-125.37,0.0,1009.09,54.837,42.359177,-71.1089,-58.06,10.9525623526059,,0.0,54.83871,,6 / 19,7755,2015-08-25 14:32:50:773
5.5366,0.146,-5.1787,8.6787,0.2116,-4.5612,-2.2108,0.7856,-2.7602,0.2642,-0.425,1.0258,0.0,-64.74,24.24,19.74,333.76,-1.24,-117.72,0.0,1009.09,54.837,42.359177,-71.1089,-58.06,10.9525623526059,,0.0,54.83871,,6 / 19,7861,2015-08-25 14:32:50:879
10.0114,0.1113,-6.7349,8.4752,0.1944,-4.9298,1.5362,-0.0831,-1.8051,0.2642,-0.425,1.0258,0.0,-64.74,24.24,19.74,333.76,-1.24,-117.72,0.0,1009.18,54.837,42.359177,-71.1089,-58.06,10.9525623526059,,0.0,54.83871,,6 / 19,7967,2015-08-25 14:32:50:985
10.3633,4.6998,-5.1068,8.1642,1.7639,-5.1385,-1.3407,1.1941,1.1785,-0.4943,-0.8309,0.1129,0.0,-65.4,19.14,21.12,324.43,-1.14,-120.19,0.0,1009.18,54.837,42.359177,-71.1089,-58.06,10.9525623526059,,0.0,54.83871,,6 / 19,8073,2015-08-25 14:32:51:091
7.1359,3.7589,-5.0182,8.1642,1.7639,-5.1385,-1.3407,1.1941,1.1785,0.1822,0.229,-0.1875,0.0,-65.82,17.04,21.48,328.87,-10.36,-122.19,0.0,1009.11,55.475,42.359177,-71.1089,-58.06,10.9525623526059,,0.0,54.83871,,6 / 19,8178,2015-08-25 14:32:51:196
9.3637,2.7821,-6.0837,7.8118,2.6292,-5.3135,0.064,3.2725,1.0016,0.4783,-0.2237,0.1609,0.0,-66.3,16.32,21.6,330.43,-15.55,-124.22,0.0,1009.11,55.475,42.359177,-71.1089,-58.06,10.9525623526059,,0.0,54.83871,,6 / 19,8285,2015-08-25 14:32:51:303
7.6758,-7.27,-5.1499,7.022,3.8262,-5.6765,1.2632,0.3769,-0.5293,0.8234,-0.1289,0.2322,0.0,-66.6,15.78,22.14,328.27,-22.96,-128.95,0.0,1009.14,55.475,42.359177,-71.1089,-58.06,10.9525623526059,,0.0,54.83871,,6 / 19,8390,2015-08-25 14:32:51:408
7.8889,2.557,-5.5773,7.5193,1.7292,-6.053,-0.6875,1.4443,1.0072,-0.6392,0.9673,-0.3782,0.0,-66.72,14.76,22.8,317.73,-10.16,-128.83,0.0,1009.11,57.012,42.359177,-71.1089,-58.06,10.9525623526059,,0.0,54.83871,,12 / 19,8496,2015-08-25 14:32:51:514
7.6303,3.0418,-5.4612,7.7009,2.3263,-5.6084,-0.0706,0.7155,0.1472,0.3558,-0.8362,0.2184,0.0,-66.54,12.0,23.46,323.05,-13.72,-126.06,0.0,1009.11,57.012,42.359177,-71.1089,-58.06,10.9525623526059,,0.0,54.83871,,12 / 19,8602,2015-08-25 14:32:51:620
6.9168,4.0785,-6.1974,7.1691,2.9068,-6.027,0.1153,-0.4839,0.5359,-0.5017,-0.1726,-0.2929,0.0,-66.18,8.76,23.58,319.43,-17.24,-130.05,0.0,1009.14,57.012,42.359177,-71.1089,-58.06,10.9525623526059,,0.0,54.83871,,12 / 19,8708,2015-08-25 14:32:51:726
8.9938,2.569,-5.6527,6.7124,3.8981,-5.9932,0.7863,-1.2381,0.6625,0.0405,0.4336,-0.1065,0.0,-65.64,6.3,23.28,319.3,-23.42,-131.76,0.0,1009.14,56.917,42.359177,-71.1089,-58.06,10.9525623526059,,0.0,54.83871,,12 / 19,8815,2015-08-25 14:32:51:833
13.5751,-1.4138,-5.1535,5.3239,5.9271,-5.718,8.2512,-7.3409,0.5645,0.0405,0.4336,-0.1065,0.0,-65.64,6.3,23.28,319.3,-23.42,-131.76,0.0,1009.19,56.917,42.359177,-71.1089,-58.06,10.9525623526059,,0.0,54.83871,,12 / 19,8921,2015-08-25 14:32:51:939
6.8833,2.241,-6.9384,6.1813,4.1479,-6.3841,0.6709,-2.0278,-0.4669,0.6637,0.0234,0.6296,0.0,-64.74,3.96,23.04,321.52,-37.19,-137.04,0.0,1009.13,56.917,42.359177,-71.1089,-58.06,10.9525623526059,,0.0,54.83871,,12 / 19,9027,2015-08-25 14:32:52:045
8.0266,3.2178,-4.4041,6.1813,4.1479,-6.3841,0.6709,-2.0278,-0.4669,-0.5071,-0.147,-0.6711,0.0,-63.9,2.82,23.04,313.59,-25.02,-135.92,0.0,1009.13,62.411,42.359177,-71.1089,-58.06,10.9525623526059,,0.0,54.83871,,12 / 19,9132,2015-08-25 14:32:52:150
8.6694,2.8527,-5.3187,6.6272,4.1687,-5.9052,-1.8221,0.3755,1.1491,0.474,-0.2301,0.016,0.0,-63.06,2.46,23.76,320.0,-25.16,-131.7,0.0,1009.11,62.411,42.359177,-71.1089,-58.06,10.9525623526059,,0.0,54.83871,,12 / 19,9238,2015-08-25 14:32:52:256
7.3789,2.9664,-5.9221,7.0429,3.639,-5.7727,-1.2729,0.3593,0.5366,0.2141,-0.1182,-0.1523,0.0,-62.22,1.98,24.6,321.97,-21.78,-129.34,0.0,1009.11,62.411,42.359177,-71.1089,-58.06,10.9525623526059,,0.0,54.83871,,12 / 19,9344,2015-08-25 14:32:52:362
7.9978,4.2617,-6.4177,7.0697,3.673,-5.7183,0.0064,-0.4432,0.5707,-0.179,0.0224,-0.4325,0.0,-61.74,1.8,25.32,322.84,-22.0,-128.97,0.0,1009.08,61.676,42.359177,-71.1089,-58.06,10.9525623526059,,0.0,54.83871,,5 / 19,9450,2015-08-25 14:32:52:468
9.4679,4.5226,-4.3084,7.0004,4.2346,-5.4067,2.4675,0.288,1.0984,-0.3238,0.8629,-1.3944,0.0,-61.44,1.5,25.86,330.48,-25.58,-127.68,0.0,1009.08,61.676,42.35919,-71.10888,-51.61,10.9525623526059,,0.0,45.16129,,5 / 19,9556,2015-08-25 14:32:52:574
3.9612,2.3415,-7.5645,6.6469,5.3069,-4.8811,-4.0492,3.6427,2.9897,0.7958,0.0064,-0.0703,0.0,-61.26,0.06,25.2,335.25,-32.76,-126.29,0.0,1009.16,61.676,42.35919,-71.10888,-51.61,10.9525623526059,,0.0,45.16129,,5 / 19,9662,2015-08-25 14:32:52:680
5.6407,3.6332,-5.0805,6.1833,5.2298,-5.5305,-5.3429,-0.5958,-0.139,0.049,-1.7097,0.7478,3.0,-60.84,-3.18,22.02,320.59,-32.23,-131.81,0.0,1009.11,57.179,42.35919,-71.10888,-51.61,10.9525623526059,,0.0,45.16129,,5 / 19,9768,2015-08-25 14:32:52:786
-1.1337,3.2274,-3.1005,6.4307,3.6866,-6.4207,9.2717,3.4613,2.7851,0.049,-1.7097,0.7478,3.0,-60.84,-3.18,22.02,320.59,-32.23,-131.81,0.0,1009.11,57.179,42.35919,-71.10888,-51.61,10.9525623526059,,0.0,45.16129,,5 / 19,9874,2015-08-25 14:32:52:892
16.2315,8.2612,-5.606,6.4307,3.6866,-6.4207,9.2717,3.4613,2.7851,-0.0309,0.4698,0.6402,1.0,-60.3,-6.84,18.36,295.67,-22.08,-134.96,0.0,1009.09,57.179,42.35919,-71.10888,-51.61,10.9525623526059,,0.0,45.16129,,5 / 19,9981,2015-08-25 14:32:52:999
8.5617,4.4269,-3.8846,7.7429,4.186,-4.3237,-3.237,-3.682,-0.5533,-0.1342,0.4964,-0.1854,1.0,-59.28,-9.24,16.08,319.26,-25.27,-119.18,0.0,1009.09,55.766,42.35919,-71.10888,-51.61,10.9525623526059,,0.0,45.16129,,5 / 19,10087,2015-08-25 14:32:53:105
9.809,3.9504,-3.0813,8.0985,4.2321,-3.5601,-6.1364,0.8161,-1.2654,-0.44,-0.4431,0.8746,0.0,-58.2,-9.78,15.06,329.78,-25.57,-113.73,0.0,1009.12,55.766,42.35919,-71.10888,-51.61,10.9525623526059,,0.0,45.16129,,5 / 19,10193,2015-08-25 14:32:53:211
7.8003,2.4002,-1.664,8.1801,3.4526,-4.1637,-5.1969,-1.973,-0.7791,-0.033,-0.0383,2.8176,1.0,-57.6,-8.46,15.12,315.36,-20.61,-116.98,0.0,1009.12,55.766,42.35919,-71.10888,-51.61,10.9525623526059,,0.0,45.16129,,5 / 19,10299,2015-08-25 14:32:53:317
8.3031,-10.4196,0.559,8.8236,0.7395,-4.2151,11.9557,7.1709,-1.0593,-0.4059,-1.7694,-0.7862,1.0,-57.18,-5.1,15.72,266.68,-4.32,-115.53,0.0,1009.12,64.693,42.35919,-71.10888,-51.61,10.9525623526059,,0.0,45.16129,,5 / 19,10405,2015-08-25 14:32:53:423
-3.7026,-0.7398,-13.5943,8.0702,2.0843,-5.167,-2.2535,-1.4271,0.4204,0.1811,-0.9417,-1.9111,0.0,-57.18,1.44,15.72,307.02,-12.27,-122.63,0.0,1009.14,64.693,42.359184,-71.10895,-38.71,10.9525623526059,,0.0,45.16129,,8 / 19,10511,2015-08-25 14:32:53:529
8.9615,-0.0012,-4.9285,7.9473,0.6891,-5.704,1.0142,-0.6903,0.7755,0.7159,0.751,0.1193,0.0,-56.94,6.24,15.36,295.08,-4.03,-125.67,0.0,1009.14,64.693,42.359184,-71.10895,-38.71,10.9525623526059,,0.0,45.16129,,8 / 19,10617,2015-08-25 14:32:53:635
4.1348,1.482,-3.723,8.2416,-0.2619,-5.3082,-3.4041,1.3908,1.0765,-0.1214,0.5156,1.8781,1.0,-56.46,10.32,16.92,297.91,1.53,-122.78,0.0,1009.17,69.787,42.359184,-71.10895,-38.71,10.9525623526059,,0.0,45.16129,,8 / 19,10723,2015-08-25 14:32:53:741
9.7456,-2.6049,-5.3127,8.157,-2.653,-4.7534,5.7318,-0.9299,0.8449,-0.1214,0.5156,1.8781,0.0,-56.46,10.32,16.92,297.91,1.53,-122.78,0.0,1009.08,69.787,42.359184,-71.10895,-38.71,10.9525623526059,,0.0,45.16129,,8 / 19,10829,2015-08-25 14:32:53:847
6.5146,-1.5634,-5.7628,8.157,-2.653,-4.7534,5.7318,-0.9299,0.8449,0.1065,-0.1672,2.0655,0.0,-56.34,13.8,19.44,259.42,15.7,-120.23,0.0,1009.08,69.787,42.359184,-71.10895,-38.71,10.9525623526059,,0.0,45.16129,,8 / 19,10935,2015-08-25 14:32:53:953
8.0924,-2.4588,-4.7226,7.8141,-3.1504,-5.0186,-0.386,1.0746,0.9185,-0.0597,-0.0842,0.4005,0.0,-55.68,18.66,24.18,262.58,18.74,-122.71,0.0,1009.15,57.644,42.359184,-71.10895,-38.71,10.9525623526059,,0.0,45.16129,,8 / 19,11041,2015-08-25 14:32:54:059
4.616,-6.3111,-7.1706,7.7458,-3.3425,-5.0001,-0.617,-3.0093,-2.2508,-0.3302,-0.2418,-0.1917,0.0,-54.6,26.28,30.12,304.25,19.93,-122.84,0.0,1009.15,57.644,42.359184,-71.10895,-38.71,10.9525623526059,,0.0,45.16129,,8 / 19,11147,2015-08-25 14:32:54:165
10.0916,-2.5929,-4.7537,7.692,-3.2243,-5.1582,2.3995,0.6313,0.4045,0.0724,0.3025,-0.1417,0.0,-53.64,34.62,36.0,359.14,19.19,-123.85,0.0,1009.08,57.644,42.359184,-71.10895,-38.71,10.9525623526059,,0.0,45.16129,,8 / 19,11252,2015-08-25 14:32:54:270
6.3422,-1.6927,-4.6196,7.7478,-3.1705,-5.1078,-0.9734,1.479,0.0441,-0.2706,-0.0916,0.2109,0.0,-51.9,41.94,41.34,16.94,18.86,-123.4,0.0,1009.08,54.748,42.359184,-71.10895,-38.71,10.9525623526059,,0.0,45.16129,,8 / 19,11358,2015-08-25 14:32:54:376
7.8135,-4.1934,-7.2173,7.7366,-3.2352,-5.0842,0.8203,1.0146,1.5468,0.1598,0.115,-0.0501,0.0,-50.04,43.44,44.16,26.3,19.26,-123.31,0.0,1009.11,54.748,42.359184,-71.10895,-38.71,10.9525623526059,,0.0,45.16129,,11 / 19,11464,2015-08-25 14:32:54:482
7.2305,-3.4189,-4.9213,7.8064,-3.2232,-4.9841,-0.0492,0.0246,-0.1132,0.0767,0.0458,-0.0288,0.0,-48.66,43.08,45.96,33.27,19.19,-122.56,0.0,1009.09,54.748,42.35918,-71.10883,-38.71,10.9525623526059,,0.0,41.935486,,11 / 19,11570,2015-08-25 14:32:54:588
7.8781,-3.1292,-5.0733,7.8189,-3.2236,-4.9642,-0.149,0.0346,-0.2599,0.0767,0.0458,-0.0288,0.0,-48.66,43.08,45.96,33.27,19.19,-122.56,0.0,1009.09,56.499,42.35918,-71.10883,-38.71,10.9525623526059,,0.0,41.935486,,11 / 19,11676,2015-08-25 14:32:54:694
8.1199,-3.2334,-4.7489,7.7633,-3.227,-5.0486,0.3567,-0.0064,0.2997,-0.0533,-0.0075,0.0437,0.0,-47.34,42.78,46.92,36.91,19.19,-122.41,0.0,1009.13,56.499,42.35918,-71.10883,-38.71,10.9525623526059,,0.0,41.935486,,11 / 19,11782,2015-08-25 14:32:54:800
8.011,-3.1484,-4.7405,7.7633,-3.227,-5.0486,0.3567,-0.0064,0.2997,-0.0639,-0.0373,0.0501,0.0,-46.5,42.48,47.58,39.55,19.21,-123.04,0.0,1009.13,56.499,42.35918,-71.10883,-38.71,10.9525623526059,,0.0,41.935486,,11 / 19,11889,2015-08-25 14:32:54:907
7.8949,-3.0957,-5.0075,7.7976,-3.1985,-5.0136,0.3175,0.1734,0.1977,0.179,0.0575,-0.114,0.0,-46.2,42.3,47.76,39.77,19.04,-122.74,0.0,1009.11,54.468,42.35918,-71.10883,-38.71,10.9525623526059,,0.0,41.935486,,11 / 19,11995,2015-08-25 14:32:55:013
7.2772,-3.4572,-5.0458,7.9089,-3.1693,-4.8555,-0.0284,0.0951,-0.0622,0.2525,0.1502,-0.1917,0.0,-46.2,42.3,47.4,39.89,18.86,-121.55,0.0,1009.09,54.468,42.35918,-71.10883,-38.71,10.9525623526059,,0.0,41.935486,,11 / 19,12100,2015-08-25 14:32:55:118
8.1295,-3.1161,-4.6088,7.9936,-3.1827,-4.7055,-0.258,0.014,9.0E-4,0.0991,-0.0192,-0.0383,0.0,-46.32,42.36,47.04,41.92,18.94,-120.48,0.0,1009.09,54.468,42.35918,-71.10883,-38.71,10.9525623526059,,0.0,41.935486,,11 / 19,12207,2015-08-25 14:32:55:225
8.7053,-3.1149,-4.5849,8.0345,-3.1848,-4.634,0.4577,-0.033,0.2131,0.2866,0.1214,-0.1534,0.0,-46.62,42.36,46.44,40.68,18.95,-119.97,0.0,1009.11,54.468,42.35918,-71.10883,-38.71,10.9525623526059,,0.0,41.935486,,11 / 19,12313,2015-08-25 14:32:55:331
7.4364,-3.4105,-5.0925,8.0558,-3.2182,-4.5735,-0.6194,-0.1923,-0.519,-0.1023,-0.0937,0.1076,0.0,-47.58,42.42,45.6,41.36,19.16,-119.58,0.0,1009.11,56.841,42.35918,-71.10883,-38.71,10.9525623526059,,0.0,41.935486,,11 / 19,12419,2015-08-25 14:32:55:437
7.8147,-4.215,-5.7066,8.0104,-3.3132,-4.5855,-0.2124,-0.6803,-0.4818,-0.2173,-0.0831,0.1097,0.0,-49.68,42.54,43.92,35.92,19.75,-119.79,0.0,1009.11,56.841,42.359184,-71.10884,-41.94,10.9525623526059,,0.0,38.709675,,9 / 19,12524,2015-08-25 14:32:55:542
8.5281,-3.468,-4.0606,7.939,-3.3456,-4.6851,-0.2272,-0.1392,0.1516,-0.2173,-0.0831,0.1097,0.0,-49.68,42.54,43.92,35.92,19.75,-119.79,0.0,1009.1,56.841,42.359184,-71.10884,-41.94,10.9525623526059,,0.0,38.709675,,9 / 19,12630,2015-08-25 14:32:55:648
8.023,-3.6236,-4.5071,7.9468,-3.3906,-4.6393,-0.2733,-0.2714,-0.2497,0.0639,0.0202,0.0085,0.0,-52.02,42.72,42.12,28.61,19.95,-120.55,0.0,1009.1,57.917,42.359184,-71.10884,-41.94,10.9525623526059,,0.0,38.709675,,9 / 19,12736,2015-08-25 14:32:55:754
7.8231,-3.7134,-4.7082,7.9468,-3.3906,-4.6393,-0.2733,-0.2714,-0.2497,0.0043,-0.0202,0.0085,0.0,-54.0,43.02,40.68,25.6,20.23,-120.28,0.0,1009.12,57.917,42.359184,-71.10884,-41.94,10.9525623526059,,0.0,38.709675,,9 / 19,12842,2015-08-25 14:32:55:860
7.9368,-3.7158,-4.7728,7.9313,-3.4078,-4.6531,-0.0196,-0.2709,0.0503,0.0202,0.0213,-0.0181,0.0,-55.38,43.38,39.54,21.65,20.33,-120.4,0.0,1009.12,57.917,42.359184,-71.10884,-41.94,10.9525623526059,,0.0,38.709675,,9 / 19,12948,2015-08-25 14:32:55:966
7.8721,-3.6176,-4.6807,7.9384,-3.4093,-4.6399,-0.0663,-0.2084,-0.0408,0.0043,0.0075,-0.0202,0.0,-55.5,43.74,39.36,18.29,20.34,-120.31,0.0,1009.11,60.037,42.359184,-71.10884,-41.94,10.9525623526059,,0.0,38.709675,,9 / 19,13054,2015-08-25 14:32:56:072
7.768,-3.6033,-4.6376,7.9352,-3.4182,-4.6387,-0.1265,-0.2521,-0.0958,-0.0011,0.0,0.0053,0.0,-54.96,43.98,39.42,18.34,20.4,-120.31,0.0,1009.1,60.037,42.359184,-71.10884,-41.94,10.9525623526059,,0.0,38.709675,,9 / 19,13160,2015-08-25 14:32:56:178
8.0517,-3.5733,-4.6507,7.9191,-3.4318,-4.6563,-0.0302,-0.1847,-0.095,-0.0405,-0.0405,0.032,0.0,-54.12,44.28,39.36,19.13,20.48,-120.46,0.0,1009.1,60.037,42.359184,-71.10884,-41.94,10.9525623526059,,0.0,38.709675,,9 / 19,13266,2015-08-25 14:32:56:284
8.0421,-3.559,-4.391,7.9056,-3.4393,-4.6736,-0.1316,-0.1173,0.1545,0.0032,0.0043,-0.016,0.0,-52.8,44.52,39.36,18.99,20.53,-120.59,0.0,1009.14,60.196,42.359184,-71.10884,-41.94,10.9525623526059,,0.0,38.709675,,9 / 19,13372,2015-08-25 14:32:56:390
7.7285,-3.5195,-4.6902,7.8959,-3.4443,-4.6863,-0.1674,-0.0751,-0.004,0.0373,0.0213,-0.0085,0.0,-51.36,44.7,39.84,23.16,20.56,-120.69,0.0,1009.14,60.196,42.359184,-71.10884,-41.94,10.9525623526059,,0.0,38.709675,,9 / 19,13479,2015-08-25 14:32:56:497
7.8542,-3.5901,-4.5107,7.8988,-3.4638,-4.6669,-0.0207,-0.1981,0.0988,0.0373,0.0213,-0.0085,0.0,-51.36,44.7,39.84,23.16,20.56,-120.69,0.0,1009.11,60.196,42.359177,-71.10882,-45.16,10.9525623526059,,0.0,38.709675,,9 / 19,13584,2015-08-25 14:32:56:602
7.9751,-3.5805,-4.6172,7.8988,-3.4638,-4.6669,-0.0207,-0.1981,0.0988,-0.0064,-0.0096,0.016,0.0,-50.28,44.7,41.04,26.8,20.68,-120.58,0.0,1009.11,58.242,42.359177,-71.10882,-45.16,10.9525623526059,,0.0,38.709675,,10 / 19,13690,2015-08-25 14:32:56:708
7.5956,-3.4093,-4.5191,7.8908,-3.4628,-4.6812,-0.1132,-0.0578,0.0113,0.0149,0.0053,-0.0138,0.0,-49.8,44.46,42.36,29.95,20.68,-120.68,0.0,1009.07,58.242,42.359177,-71.10882,-45.16,10.9525623526059,,0.0,38.709675,,10 / 19,13796,2015-08-25 14:32:56:814
7.9224,-3.4141,-4.6831,7.8905,-3.4633,-4.6814,0.0319,0.0492,-0.0017,0.0043,-0.0256,0.0128,0.0,-49.92,43.98,43.62,34.33,20.68,-120.68,0.0,1009.1,58.242,42.359177,-71.10882,-45.16,10.9525623526059,,0.0,38.709675,,10 / 19,13903,2015-08-25 14:32:56:921
8.0756,-3.2058,-4.7046,7.8978,-3.4191,-4.7015,-0.0041,0.3114,0.0185,-0.0021,-0.0213,-0.0128,0.0,-50.88,43.5,44.28,32.91,20.4,-120.76,0.0,1009.1,55.501,42.359177,-71.10882,-45.16,10.9525623526059,,0.0,38.709675,,10 / 19,14009,2015-08-25 14:32:57:027
7.8542,-2.8575,-4.5466,7.9032,-3.3592,-4.7356,-0.0274,0.5592,-0.0636,-0.0202,-0.0107,0.0096,0.0,-51.6,43.2,43.92,32.38,20.03,-120.93,0.0,1009.17,55.501,42.359177,-71.10882,-45.16,10.9525623526059,,0.0,38.709675,,10 / 19,14115,2015-08-25 14:32:57:133
8.3258,-2.654,-4.5179,7.9203,-3.3283,-4.7288,0.7192,0.1847,-0.0764,0.0032,-0.0234,0.0011,0.0,-52.38,43.02,43.14,29.95,19.84,-120.84,0.0,1009.17,55.501,42.359177,-71.10882,-45.16,10.9525623526059,,0.0,38.709675,,10 / 19,14221,2015-08-25 14:32:57:239
7.7871,-2.8994,-4.8686,7.9602,-3.2741,-4.6996,-0.0773,0.2562,0.0404,0.0383,-0.0128,-0.0298,0.0,-52.92,43.02,42.54,29.26,19.5,-120.56,0.0,1009.14,54.755,42.359177,-71.10882,-45.16,10.9525623526059,,0.0,38.709675,,10 / 19,14327,2015-08-25 14:32:57:345
8.0218,-2.9736,-5.2086,7.9633,-3.2344,-4.7216,0.0584,0.2608,-0.487,-0.0288,0.0362,0.0213,0.0,-53.04,43.2,42.06,26.19,19.26,-120.66,0.0,1009.09,54.755,42.359177,-71.10882,-45.16,10.9525623526059,,0.0,38.709675,,10 / 19,14433,2015-08-25 14:32:57:451
8.0852,-3.2777,-4.6316,7.9636,-3.2241,-4.7282,0.0139,0.0613,0.2535,-0.0288,0.0362,0.0213,0.0,-53.04,43.2,42.06,26.19,19.26,-120.66,0.0,1009.09,54.755,42.359177,-71.10882,-45.16,10.9525623526059,,0.0,38.709675,,8 / 19,14539,2015-08-25 14:32:57:557
8.1547,-2.8671,-4.5286,7.9636,-3.2241,-4.7282,0.0139,0.0613,0.2535,-0.0277,-0.0256,0.0149,0.0,-53.22,43.44,41.88,25.99,19.19,-120.7,0.0,1009.09,54.845,42.359177,-71.10882,-45.16,10.9525623526059,,0.0,38.709675,,8 / 19,14645,2015-08-25 14:32:57:663
7.7488,-3.3232,-4.464,7.9887,-3.1951,-4.7056,0.0893,0.0443,-0.0637,0.0181,0.0469,-0.0554,0.0,-53.34,43.8,42.06,25.16,19.01,-120.5,0.0,1009.09,54.845,42.359177,-71.10882,-45.16,10.9525623526059,,0.0,38.709675,,8 / 19,14751,2015-08-25 14:32:57:769
8.0649,-3.1603,-4.8339,7.9943,-3.1763,-4.7088,0.0694,0.0052,-0.1538,-0.0277,-0.0245,0.0075,1.0,-53.46,44.22,42.12,24.99,18.9,-120.5,0.0,1009.14,54.845,42.359177,-71.10882,-45.16,10.9525623526059,,0.0,38.709675,,8 / 19,14857,2015-08-25 14:32:57:875
8.1726,-2.6983,-4.4436,7.9948,-3.1289,-4.7395,0.1778,0.4306,0.2958,0.0639,0.0107,-0.0437,1.0,-53.4,44.64,42.18,23.17,18.61,-120.66,0.0,1009.13,58.202,42.359177,-71.10882,-45.16,10.9525623526059,,0.0,38.709675,,8 / 19,14963,2015-08-25 14:32:57:981
7.8829,-2.7569,-4.9356,8.0515,-3.0882,-4.6698,-0.2104,0.2762,-0.37,0.0479,0.0469,0.0075,1.0,-53.4,45.0,42.3,24.24,18.36,-120.11,0.0,1009.13,58.202,42.359177,-71.10882,-45.16,10.9525623526059,,0.0,38.709675,,8 / 19,15068,2015-08-25 14:32:58:086
8.3773,-2.7078,-5.1679,8.0345,-3.095,-4.6945,-0.0462,0.1286,0.8614,-0.0714,0.0565,0.0799,0.0,-53.4,45.24,42.42,23.83,18.4,-120.3,0.0,1009.1,58.202,42.359177,-71.10882,-45.16,10.9525623526059,,0.0,38.709675,,8 / 19,15174,2015-08-25 14:32:58:192
8.6263,-3.0382,-4.0989,8.0586,-3.0439,-4.6865,0.2721,0.6785,0.5158,0.1321,0.049,-0.0884,0.0,-53.46,45.36,42.48,23.71,18.08,-120.18,0.0,1009.1,61.95,42.359177,-71.10882,-45.16,10.9525623526059,,0.0,38.709675,,8 / 19,15281,2015-08-25 14:32:58:299
8.0673,-2.794,-4.9333,8.0709,-3.1202,-4.6146,-0.7315,-0.9955,-0.3282,0.1321,0.049,-0.0884,0.0,-53.46,45.36,42.48,23.71,18.08,-120.18,0.0,1009.14,61.95,42.359177,-71.10882,-45.16,10.9525623526059,,0.0,38.709675,,8 / 19,15387,2015-08-25 14:32:58:405
8.2504,-3.2046,-4.604,8.0258,-3.1652,-4.6623,0.2246,-0.0394,0.0583,-0.0415,0.0405,0.0767,0.0,-53.52,45.42,42.48,24.58,18.55,-119.76,0.0,1009.09,61.95,42.35916,-71.10884,-51.61,10.9525623526059,,0.0,38.709675,,10 / 19,15493,2015-08-25 14:32:58:511
7.9033,-3.0131,-4.7561,8.0258,-3.1652,-4.6623,0.2246,-0.0394,0.0583,-0.0245,-0.1513,0.049,0.0,-53.88,45.48,42.24,23.93,18.83,-120.15,0.0,1009.09,56.233,42.35916,-71.10884,-51.61,10.9525623526059,,0.0,38.709675,,10 / 19,15598,2015-08-25 14:32:58:616
7.5824,-3.4536,-4.7609,8.0461,-3.1389,-4.6452,-0.3499,-0.0323,0.0711,0.0937,0.0735,-0.0479,0.0,-54.18,45.48,42.12,24.11,18.67,-120.0,0.0,1009.08,56.233,42.35916,-71.10884,-51.61,10.9525623526059,,0.0,38.709675,,10 / 19,15705,2015-08-25 14:32:58:723
8.1163,-3.3866,-4.7274,8.0396,-3.1743,-4.6324,-0.013,-0.2781,0.1816,-0.0075,0.0128,0.0192,0.0,-54.54,45.48,42.0,23.68,18.89,-119.95,0.0,1009.08,56.233,42.35916,-71.10884,-51.61,10.9525623526059,,0.0,38.709675,,10 / 19,15811,2015-08-25 14:32:58:829
7.9392,-3.1472,-4.5765,8.0343,-3.179,-4.6383,0.0725,-0.0759,-0.1166,-0.0075,-0.0149,-0.0107,0.0,-54.9,45.48,41.94,23.59,18.92,-120.0,0.0,1009.12,54.958,42.35916,-71.10884,-51.61,10.9525623526059,,0.0,38.709675,,10 / 19,15917,2015-08-25 14:32:58:935
7.8877,-3.231,-4.6436,8.031,-3.1757,-4.6462,-0.1733,-0.0648,-0.0429,0.017,0.0234,0.0043,0.0,-54.96,45.48,42.0,23.42,18.9,-120.05,0.0,1009.12,54.958,42.35916,-71.10884,-51.61,10.9525623526059,,0.0,38.709675,,10 / 19,16023,2015-08-25 14:32:59:041
7.9751,-3.4321,-4.4999,8.0355,-3.1998,-4.6219,-0.0604,-0.2323,0.122,-0.0437,-0.0213,0.0021,1.0,-55.02,45.48,41.88,24.03,19.04,-119.91,0.0,1009.11,54.958,42.35916,-71.10884,-51.61,10.9525623526059,,0.0,38.709675,,10 / 19,16129,2015-08-25 14:32:59:147
7.8314,-3.4512,-5.2373,8.0282,-3.1927,-4.6394,-0.3177,-0.0263,0.2999,0.0117,-0.0075,0.0085,0.0,-55.02,45.42,41.64,23.65,19.0,-120.02,0.0,1009.08,56.14,42.35916,-71.10884,-51.61,10.9525623526059,,0.0,38.709675,,10 / 19,16235,2015-08-25 14:32:59:253
7.9428,-3.2789,-4.7812,8.0231,-3.1937,-4.6476,-0.127,0.0465,-0.0128,0.0117,-0.0075,0.0085,0.0,-55.02,45.42,41.64,23.65,19.0,-120.02,0.0,1009.08,56.14,42.35916,-71.10884,-51.61,10.9525623526059,,0.0,38.709675,,10 / 19,16341,2015-08-25 14:32:59:359
8.029,-3.4058,-4.8686,8.0231,-3.1937,-4.6476,-0.127,0.0465,-0.0128,0.0469,0.0522,0.0043,0.0,-54.96,45.42,41.46,21.23,19.01,-120.08,0.0,1009.1,56.14,42.35916,-71.10884,-51.61,10.9525623526059,,0.0,38.709675,,10 / 19,16447,2015-08-25 14:32:59:465
8.3534,-3.3279,-4.1731,8.0495,-3.2189,-4.584,0.1183,-0.2514,0.0111,-0.0458,-0.0522,0.0181,0.0,-54.96,45.36,41.34,22.65,19.16,-119.66,0.0,1009.1,52.218,42.359173,-71.10885,-45.16,10.9525623526059,,0.0,38.709675,,8 / 19,16552,2015-08-25 14:32:59:570
7.8266,-3.2956,-4.5825,8.0295,-3.2029,-4.6301,-0.2029,-0.0927,0.0476,0.0,-0.0522,-0.0298,1.0,-54.9,45.36,41.4,21.63,19.06,-119.97,0.0,1009.07,52.218,42.359173,-71.10885,-45.16,10.9525623526059,,0.0,38.709675,,8 / 19,16659,2015-08-25 14:32:59:677
8.0565,-3.4129,-4.5849,8.0271,-3.183,-4.648,-0.0472,-0.1713,-0.369,-0.0085,0.0437,0.016,1.0,-54.84,45.36,41.52,23.42,18.94,-120.07,0.0,1009.1,52.218,42.359173,-71.10885,-45.16,10.9525623526059,,0.0,38.709675,,8 / 19,16764,2015-08-25 14:32:59:782
8.0026,-3.2884,-4.6615,8.0417,-3.212,-4.6026,0.247,0.0062,0.4091,0.0138,0.0096,-0.0064,1.0,-54.72,45.36,41.58,24.49,19.12,-119.78,0.0,1009.1,52.509,42.359173,-71.10885,-45.16,10.9525623526059,,0.0,38.709675,,8 / 19,16871,2015-08-25 14:32:59:889
7.8458,-3.4213,-4.7058,8.0418,-3.2022,-4.6093,-0.2247,-0.0839,-0.2964,0.0096,0.0032,-0.0011,0.0,-54.66,45.36,41.52,24.3,19.06,-119.82,0.0,1009.11,52.509,42.359173,-71.10885,-45.16,10.9525623526059,,0.0,38.709675,,8 / 19,16977,2015-08-25 14:32:59:995
7.9715,-3.3088,-4.6424,8.0369,-3.2065,-4.6148,0.0435,-0.0424,0.2634,0.0117,0.0032,-0.0064,0.0,-54.6,45.36,41.46,21.96,19.09,-119.86,0.0,1009.11,52.509,42.359173,-71.10885,-45.16,10.9525623526059,,0.0,38.709675,,8 / 19,17083,2015-08-25 14:33:00:101
7.8578,-3.2585,-4.5765,8.034,-3.1968,-4.6266,-0.0936,-0.1455,-0.254,-0.0149,0.0021,-0.0021,0.0,-54.72,45.36,41.46,21.68,19.02,-119.94,0.0,1009.15,52.509,42.359173,-71.10885,-45.16,10.9525623526059,,0.0,38.709675,,8 / 19,17189,2015-08-25 14:33:00:207
8.0122,-3.2525,-4.5382,8.0269,-3.1946,-4.6404,0.123,-0.1441,0.1381,-0.0149,0.0021,-0.0021,1.0,-54.72,45.36,41.46,21.68,19.02,-119.94,0.0,1009.14,53.567,42.359173,-71.10885,-45.16,10.9525623526059,,0.0,38.709675,,8 / 19,17295,2015-08-25 14:33:00:313
8.1056,-3.298,-4.3886,8.0269,-3.1946,-4.6404,0.123,-0.1441,0.1381,-0.0117,-0.0096,0.0064,1.0,-54.78,45.36,41.4,21.38,19.01,-120.03,0.0,1009.14,53.567,42.359173,-71.10885,-45.16,10.9525623526059,,0.0,38.709675,,8 / 19,17401,2015-08-25 14:33:00:419
7.8937,-3.3196,-4.8459,8.029,-3.2048,-4.6297,-0.0707,-0.0753,-0.0953,0.0181,-0.0043,-0.0085,0.0,-54.9,45.36,41.28,21.65,19.07,-119.97,0.0,1009.06,53.567,42.35917,-71.10884,-48.39,10.9525623526059,,0.0,38.709675,,8 / 19,17506,2015-08-25 14:33:00:524
8.0421,-3.1663,-4.6376,8.0161,-3.2112,-4.6476,-0.0673,-0.1347,0.0855,-0.0352,-0.0352,0.0021,0.0,-54.96,45.36,41.1,21.31,19.11,-120.1,0.0,1009.06,53.211,42.35917,-71.10884,-48.39,10.9525623526059,,0.0,38.709675,,9 / 19,17612,2015-08-25 14:33:00:630
7.8829,-3.4069,-4.6196,8.0156,-3.2007,-4.6557,-0.1243,-0.1572,-0.104,0.0469,0.0426,0.0,0.0,-54.9,45.36,40.98,21.1,19.05,-120.15,0.0,1009.14,53.211,42.35917,-71.10884,-48.39,10.9525623526059,,0.0,38.709675,,9 / 19,17718,2015-08-25 14:33:00:736
8.023,-3.2717,-4.4484,8.0361,-3.23,-4.5999,0.0492,-0.1278,0.0688,-0.0458,-0.0373,0.017,0.0,-54.9,45.36,40.92,22.38,19.23,-119.79,0.0,1009.15,53.211,42.35917,-71.10884,-48.39,10.9525623526059,,0.0,38.709675,,9 / 19,17824,2015-08-25 14:33:00:842
7.938,-3.2573,-4.5657,8.019,-3.2283,-4.6307,-0.0188,-0.0302,0.0877,0.0256,-0.0032,-0.0245,0.0,-54.9,45.36,40.92,21.74,19.22,-120.0,0.0,1009.15,52.175,42.35917,-71.10884,-48.39,10.9525623526059,,0.0,38.709675,,9 / 19,17931,2015-08-25 14:33:00:949
7.9164,-3.2633,-4.6639,8.0167,-3.2168,-4.6427,-0.1003,-0.0465,-0.0212,-0.0064,0.0202,0.0096,1.0,-54.9,45.36,40.98,21.44,19.15,-120.08,0.0,1009.11,52.175,42.35917,-71.10884,-48.39,10.9525623526059,,0.0,38.709675,,9 / 19,18037,2015-08-25 14:33:01:055
8.029,-3.3698,-4.4867,8.0233,-3.2212,-4.6283,-0.0111,-0.1319,0.0015,-0.0096,-0.0085,-0.0021,1.0,-54.84,45.36,40.92,21.76,19.18,-119.98,0.0,1009.11,52.175,42.35917,-71.10884,-48.39,10.9525623526059,,0.0,38.709675,,9 / 19,18143,2015-08-25 14:33:01:161
8.0278,-3.3555,-4.6531,8.0202,-3.223,-4.6324,-0.0822,-0.0894,-0.0243,-0.0096,-0.0085,-0.0021,0.0,-54.84,45.36,40.92,21.76,19.18,-119.98,0.0,1009.08,53.033,42.35917,-71.10884,-48.39,10.9525623526059,,0.0,38.709675,,9 / 19,18249,2015-08-25 14:33:01:267
7.9739,-3.2836,-4.6316,8.0202,-3.223,-4.6324,-0.0822,-0.0894,-0.0243,0.0234,0.0224,-0.0107,0.0,-54.84,45.24,40.92,21.68,19.19,-120.01,0.0,1009.08,53.033,42.35917,-71.10884,-48.39,10.9525623526059,,0.0,38.709675,,9 / 19,18355,2015-08-25 14:33:01:373
7.9679,-3.213,-4.3287,8.0236,-3.2226,-4.6268,0.0748,-0.1101,-0.1604,-0.0447,-0.0266,-0.0011,0.0,-54.84,45.18,40.86,21.8,19.18,-119.97,0.0,1009.05,53.033,42.35917,-71.10884,-48.39,10.9525623526059,,0.0,38.709675,,10 / 19,18461,2015-08-25 14:33:01:479
7.999,-3.3004,-4.5729,8.0126,-3.2044,-4.6583,0.0044,-0.1283,-0.1277,0.0064,0.0256,-0.0043,0.0,-54.84,45.12,40.92,21.06,19.07,-120.17,0.0,1009.11,54.837,42.359142,-71.10876,-61.29,10.9525623526059,,0.0,38.709675,,10 / 19,18567,2015-08-25 14:33:01:585
7.9751,-3.2872,-4.4604,8.0146,-3.2189,-4.6449,-0.0395,-0.0684,0.1845,-0.0298,-0.0256,-0.0011,0.0,-54.84,45.06,41.04,21.4,19.16,-120.09,0.0,1009.11,54.837,42.359142,-71.10876,-61.29,10.9525623526059,,0.0,38.709675,,10 / 19,18673,2015-08-25 14:33:01:691
7.8913,-3.1603,-4.7645,8.0106,-3.2051,-4.6613,-0.1385,-0.0043,-0.1295,0.049,0.0522,-0.0043,0.0,-54.84,45.06,41.16,21.0,19.08,-120.19,0.0,1009.1,54.837,42.359142,-71.10876,-61.29,10.9525623526059,,0.0,38.709675,,10 / 19,18779,2015-08-25 14:33:01:797
7.9619,-3.5123,-4.8602,8.0135,-3.2248,-4.6427,0.0287,-0.2432,0.0148,-0.1651,-0.0714,0.0831,0.0,-54.78,45.06,41.22,21.48,19.2,-120.09,0.0,1009.1,56.352,42.359142,-71.10876,-61.29,10.9525623526059,,0.0,38.709675,,10 / 19,18885,2015-08-25 14:33:01:903
8.0517,-3.3938,-4.3874,7.9659,-3.2327,-4.7184,0.057,0.0197,0.1586,0.0107,-0.0117,-0.0117,0.0,-54.72,45.06,41.28,19.92,19.25,-120.64,0.0,1009.12,56.352,42.359142,-71.10876,-61.29,10.9525623526059,,0.0,38.709675,,10 / 19,18991,2015-08-25 14:33:02:009
7.8243,-3.2884,-4.8518,7.9576,-3.2286,-4.7353,-0.1333,-0.0599,-0.1165,0.0107,-0.0117,-0.0117,0.0,-54.72,45.06,41.28,19.92,19.25,-120.64,0.0,1009.11,56.352,42.359142,-71.10876,-61.29,10.9525623526059,,0.0,38.709675,,10 / 19,19097,2015-08-25 14:33:02:115
7.859,-3.3064,-4.5633,7.9505,-3.2247,-4.7497,0.021,-0.0685,0.1648,-0.0298,-0.0138,0.0107,0.0,-54.6,45.18,41.28,19.54,19.22,-120.76,0.0,1009.11,54.325,42.359142,-71.10876,-61.29,10.9525623526059,,0.0,38.709675,,10 / 19,19203,2015-08-25 14:33:02:221
7.8961,-3.2753,-4.6747,7.9505,-3.2247,-4.7497,0.021,-0.0685,0.1648,0.0266,0.0107,-0.0085,0.0,-54.54,45.24,41.34,19.21,19.2,-120.85,0.0,1009.11,54.325,42.359142,-71.10876,-61.29,10.9525623526059,,0.0,38.709675,,10 / 19,19309,2015-08-25 14:33:02:327
7.9679,-3.3028,-4.6424,7.9577,-3.2285,-4.735,0.0892,-0.1054,-0.0821,0.0043,0.0043,-0.0043,0.0,-54.42,45.3,41.58,22.83,19.22,-120.75,0.0,1009.11,54.325,42.359142,-71.10876,-61.29,10.9525623526059,,0.0,38.709675,,10 / 19,19415,2015-08-25 14:33:02:433
7.9547,-3.3303,-4.6412,7.9703,-3.2323,-4.7113,-0.0659,-0.0837,0.1383,0.0043,-0.016,-0.0075,0.0,-54.3,45.42,41.82,23.33,19.24,-120.59,0.0,1009.16,52.345,42.359154,-71.10879,-58.06,10.9525623526059,,0.0,38.709675,,9 / 19,19521,2015-08-25 14:33:02:539
7.8949,-3.2513,-4.8351,7.9713,-3.226,-4.7139,-0.0764,-0.0253,-0.1212,0.065,0.0511,-0.0352,1.0,-54.06,45.42,42.0,23.25,19.21,-120.6,0.0,1009.13,52.345,42.359154,-71.10879,-58.06,10.9525623526059,,0.0,38.709675,,9 / 19,19627,2015-08-25 14:33:02:645
7.9452,-3.2777,-4.7297,7.9906,-3.2266,-4.6807,-0.091,-0.0691,-0.0478,-0.0075,0.0032,0.0202,1.0,-53.82,45.42,42.12,23.91,19.21,-120.36,0.0,1009.13,52.345,42.359154,-71.10879,-58.06,10.9525623526059,,0.0,38.709675,,9 / 19,19732,2015-08-25 14:33:02:750
7.9835,-3.3507,-4.1899,7.941,-3.2367,-4.7575,-0.4867,0.0991,-0.2536,0.032,0.0543,0.1065,0.0,-53.64,45.48,42.18,22.42,19.27,-120.93,0.0,1009.12,64.217,42.359154,-71.10879,-58.06,10.9525623526059,,0.0,38.709675,,9 / 19,19838,2015-08-25 14:33:02:856
8.3929,-3.7792,-4.2521,7.9098,-3.2867,-4.7751,0.2197,0.0079,0.1854,-0.1491,-0.115,0.1001,0.0,-53.52,45.48,42.18,22.29,19.58,-121.12,0.0,1009.12,64.217,42.359154,-71.10879,-58.06,10.9525623526059,,0.0,38.709675,,9 / 19,19945,2015-08-25 14:33:02:963
8.3641,-3.2621,-4.1623,7.8968,-3.2561,-4.8175,0.1058,0.0694,0.7007,-0.1491,-0.115,0.1001,0.0,-53.52,45.48,42.18,22.29,19.58,-121.12,0.0,1009.11,64.217,42.359154,-71.10879,-58.06,10.9525623526059,,0.0,38.709675,,9 / 19,20051,2015-08-25 14:33:03:069
7.7464,-3.1891,-4.7884,7.8968,-3.2561,-4.8175,0.1058,0.0694,0.7007,0.1736,0.0639,-0.082,0.0,-53.52,45.36,42.18,21.25,19.39,-121.39,0.0,1009.11,62.713,42.359154,-71.10879,-58.06,10.9525623526059,,0.0,38.709675,,9 / 19,20157,2015-08-25 14:33:03:175
7.8805,-3.3662,-4.6124,7.9372,-3.2419,-4.7604,-0.2135,-0.1818,-0.3393,-0.0138,-0.0021,0.0117,1.0,-53.52,45.3,42.18,22.38,19.3,-120.95,0.0,1009.08,62.713,42.359154,-71.10879,-58.06,10.9525623526059,,0.0,38.709675,,9 / 19,20263,2015-08-25 14:33:03:281
8.1032,-3.2501,-4.6112,7.9208,-3.2459,-4.7849,-0.0414,-0.0605,0.2551,-0.0192,0.0085,0.0224,0.0,-53.4,45.18,42.12,22.87,19.33,-121.14,0.0,1009.1,62.713,42.359154,-71.10879,-58.06,10.9525623526059,,0.0,38.709675,,9 / 19,20369,2015-08-25 14:33:03:387
7.9021,-3.3543,-4.78,7.9258,-3.2539,-4.7712,0.1271,-0.0657,0.1169,0.0234,0.0043,-0.0085,0.0,-53.16,45.06,42.06,23.18,19.38,-121.05,0.0,1009.1,56.117,42.359154,-71.10879,-58.06,10.9525623526059,,0.0,38.709675,,9 / 19,20474,2015-08-25 14:33:03:492
7.8662,-3.4393,-4.6998,7.9343,-3.2605,-4.7524,-0.0681,-0.1787,0.0526,-0.0202,-0.0021,0.0117,0.0,-52.74,45.0,42.06,23.59,19.42,-120.92,0.0,1009.12,56.117,42.359154,-71.10877,-58.06,10.9525623526059,,0.0,38.709675,,9 / 19,20581,2015-08-25 14:33:03:599
7.9799,-3.2178,-4.6459,7.9318,-3.2646,-4.7538,0.0744,0.1006,0.0959,0.0245,0.0032,-0.0128,0.0,-52.26,45.0,42.12,24.49,19.44,-120.94,0.0,1009.12,56.117,42.359154,-71.10877,-58.06,10.9525623526059,,0.0,38.709675,,9 / 19,20687,2015-08-25 14:33:03:705
7.8422,-3.3471,-4.8195,7.9338,-3.2575,-4.7554,-0.1526,-0.1746,-0.0402,-0.0277,-0.016,0.0149,1.0,-51.84,45.0,42.12,24.43,19.4,-120.94,0.0,1009.11,56.03,42.359154,-71.10877,-58.06,10.9525623526059,,0.0,38.709675,,9 / 19,20793,2015-08-25 14:33:03:811
7.9404,-3.3255,-4.6436,7.9305,-3.2637,-4.7567,-0.0487,-0.0858,0.088,0.0224,0.0096,-0.0064,1.0,-51.48,45.0,42.12,25.31,19.44,-120.96,0.0,1009.12,56.03,42.359154,-71.10877,-58.06,10.9525623526059,,0.0,38.709675,,9 / 19,20899,2015-08-25 14:33:03:917
7.9535,-3.3495,-4.7405,7.9434,-3.2675,-4.7324,0.0101,-0.0819,-0.0082,0.0224,0.0096,-0.0064,1.0,-51.48,45.0,42.12,25.31,19.44,-120.96,0.0,1009.12,56.03,42.359154,-71.10877,-58.06,10.9525623526059,,0.0,38.709675,,9 / 19,21005,2015-08-25 14:33:04:023
7.8278,-3.4034,-4.7118,7.9434,-3.2675,-4.7324,0.0101,-0.0819,-0.0082,-0.0075,-0.0128,-0.0011,0.0,-51.42,45.06,42.06,25.77,19.46,-120.78,0.0,1009.1,53.763,42.359154,-71.10877,-58.06,10.9525623526059,,0.0,38.709675,,9 / 19,21111,2015-08-25 14:33:04:129
7.9523,-3.3363,-4.7118,7.9392,-3.265,-4.7412,-0.0515,-0.088,-0.0496,-0.0021,0.0011,0.0,0.0,-51.36,45.12,42.06,25.6,19.45,-120.85,0.0,1009.1,53.763,42.359154,-71.10877,-58.06,10.9525623526059,,0.0,38.709675,,9 / 19,21217,2015-08-25 14:33:04:235
7.8961,-3.3339,-4.6771,7.9398,-3.2692,-4.7372,-0.0462,-0.0827,0.041,0.0,0.0053,0.0032,0.0,-51.42,45.18,42.06,25.7,19.47,-120.82,0.0,1009.12,53.763,42.359154,-71.10877,-58.06,10.9525623526059,,0.0,38.709675,,9 / 19,21323,2015-08-25 14:33:04:341
7.938,-3.3746,-4.616,7.9427,-3.2719,-4.7305,-0.0323,-0.0728,0.0678,0.0085,0.017,0.0053,0.0,-51.54,45.18,42.12,24.98,19.49,-120.78,0.0,1009.15,52.058,42.359154,-71.10877,-58.06,10.9525623526059,,0.0,38.709675,,9 / 19,21429,2015-08-25 14:33:04:447
7.9966,-3.4776,-4.6699,7.9485,-3.2776,-4.7168,0.0481,-0.2,0.0469,-0.0128,-0.0128,-0.0032,0.0,-51.6,45.18,42.18,25.27,19.53,-120.69,0.0,1009.15,52.058,42.359154,-71.10879,-58.06,10.9525623526059,,0.0,35.48387,,10 / 19,21534,2015-08-25 14:33:04:552
7.8614,-3.4141,-4.7285,7.9463,-3.2716,-4.7247,-0.128,-0.1437,0.0536,-0.0085,-0.0181,0.0011,0.0,-51.66,45.18,42.18,25.08,19.49,-120.73,0.0,1009.14,52.058,42.359154,-71.10879,-58.06,10.9525623526059,,0.0,35.48387,,10 / 19,21641,2015-08-25 14:33:04:659
7.914,-3.322,-4.7561,7.9379,-3.2597,-4.7471,-0.0741,-0.0179,0.046,0.0202,0.017,-0.0117,0.0,-51.66,45.18,42.24,24.6,19.41,-120.88,0.0,1009.14,50.925,42.359154,-71.10879,-58.06,10.9525623526059,,0.0,35.48387,,10 / 19,21747,2015-08-25 14:33:04:765
7.9715,-3.3267,-4.7393,7.9441,-3.2568,-4.7387,0.0274,-0.07,-7.0E-4,0.0202,0.017,-0.0117,1.0,-51.66,45.18,42.24,24.6,19.41,-120.88,0.0,1009.11,50.925,42.359154,-71.10879,-58.06,10.9525623526059,,0.0,35.48387,,10 / 19,21853,2015-08-25 14:33:04:871
8.0122,-3.3878,-4.7477,7.9535,-3.2687,-4.7147,0.0264,-0.0928,0.1645,0.0501,0.0373,-0.0128,1.0,-51.66,45.18,42.3,24.74,19.4,-120.82,0.0,1009.15,50.925,42.359154,-71.10879,-58.06,10.9525623526059,,0.0,35.48387,,10 / 19,21959,2015-08-25 14:33:04:977
7.9655,-3.3543,-4.7621,7.9535,-3.2687,-4.7147,0.0264,-0.0928,0.1645,-0.0202,-0.0096,0.0064,1.0,-51.66,45.18,42.36,25.25,19.47,-120.66,0.0,1009.15,50.925,42.359154,-71.10879,-58.06,10.9525623526059,,0.0,35.48387,,10 / 19,22065,2015-08-25 14:33:05:083
8.1032,-3.2992,-4.4209,7.9493,-3.2652,-4.7241,-0.1873,-0.0495,0.2517,0.0064,-0.0011,0.0213,0.0,-51.66,45.18,42.42,25.06,19.45,-120.72,0.0,1009.12,50.963,42.359154,-71.10879,-58.06,10.9525623526059,,0.0,35.48387,,10 / 19,22171,2015-08-25 14:33:05:189
7.7788,-3.3986,-4.7704,7.9342,-3.2714,-4.7451,-0.0537,0.0069,-0.017,0.0053,0.0032,-0.0085,0.0,-51.66,45.18,42.48,24.7,19.49,-120.88,0.0,1009.12,50.963,42.359154,-71.10879,-58.06,10.9525623526059,,0.0,35.48387,,10 / 19,22277,2015-08-25 14:33:05:295
7.8302,-3.4022,-4.7094,7.945,-3.2685,-4.7291,-0.1147,-0.1337,0.0197,0.0149,0.0266,0.0149,0.0,-51.66,45.18,42.42,24.98,19.47,-120.76,0.0,1009.12,50.963,42.359154,-71.10879,-58.06,10.9525623526059,,0.0,35.48387,,10 / 19,22383,2015-08-25 14:33:05:401
7.0342,-3.778,-5.0889,7.9475,-3.2866,-4.7123,0.0455,0.4039,-0.6256,-0.2248,-0.1214,-0.0394,0.0,-51.6,45.18,42.36,25.4,19.58,-120.66,0.0,1009.12,52.009,42.359154,-71.10879,-58.06,10.9525623526059,,0.0,35.48387,,10 / 19,22489,2015-08-25 14:33:05:507
7.5369,-2.6205,-5.618,7.9681,-3.1807,-4.7499,-0.1379,-0.468,0.3171,-0.0192,-0.0756,0.0415,1.0,-51.6,45.06,42.36,24.12,18.93,-120.8,0.0,1009.06,52.009,42.359154,-71.10879,-58.06,10.9525623526059,,0.0,35.48387,,10 / 19,22594,2015-08-25 14:33:05:612
7.7393,-3.4357,-4.9081,7.9248,-3.1787,-4.8231,-0.4394,0.502,0.2861,-0.066,-0.0756,0.0021,0.0,-51.6,44.94,42.36,22.75,18.91,-121.32,0.0,1009.13,52.009,42.359154,-71.10879,-58.06,10.9525623526059,,0.0,35.48387,,10 / 19,22701,2015-08-25 14:33:05:719
8.8394,-4.5478,-5.3199,7.9648,-3.1078,-4.8035,-0.1405,-0.0729,0.7921,-0.066,-0.0756,0.0021,0.0,-51.6,44.94,42.36,22.75,18.91,-121.32,0.0,1009.13,61.442,42.359154,-71.10879,-58.06,10.9525623526059,,0.0,35.48387,,10 / 19,22807,2015-08-25 14:33:05:825
7.4974,-2.8491,-4.7992,7.9489,-3.1758,-4.7853,-0.4515,0.3267,-0.0139,0.1342,0.0895,0.0746,0.0,-51.54,44.88,42.42,22.78,18.48,-121.09,0.0,1009.11,61.442,42.359154,-71.10879,-58.06,10.9525623526059,,0.0,35.48387,,10 / 19,22913,2015-08-25 14:33:05:931
7.3765,-3.1029,-4.9823,7.9489,-3.1758,-4.7853,-0.4515,0.3267,-0.0139,-0.1193,-0.0138,0.0501,0.0,-51.54,44.82,42.42,23.44,18.9,-121.05,0.0,1009.11,61.442,42.359154,-71.10879,-58.06,10.9525623526059,,0.0,35.48387,,10 / 19,23019,2015-08-25 14:33:06:037
7.3466,-3.3303,-4.6735,7.942,-3.1703,-4.8004,-0.3332,-0.0248,0.3161,-0.0288,-0.0724,0.0341,1.0,-51.24,44.82,42.42,24.03,18.86,-121.15,0.0,1009.09,52.702,42.359154,-71.10879,-58.06,10.9525623526059,,0.0,35.48387,,10 / 19,23125,2015-08-25 14:33:06:143
7.6806,-3.3471,-4.8459,7.9073,-3.1849,-4.8477,0.1145,-0.0508,0.1587,0.0415,0.0458,-0.0032,0.0,-50.88,44.88,42.36,23.24,18.95,-121.51,0.0,1009.12,52.702,42.359154,-71.10879,-58.06,10.9525623526059,,0.0,35.48387,,10 / 19,23230,2015-08-25 14:33:06:248
7.9823,-3.3148,-4.719,7.9032,-3.1988,-4.8453,-0.0383,-0.1986,-0.0916,-0.0096,-0.0181,0.0085,0.0,-50.46,44.88,42.42,24.25,19.04,-121.51,0.0,1009.12,52.702,42.359154,-71.10879,-58.06,10.9525623526059,,0.0,35.48387,,10 / 19,23336,2015-08-25 14:33:06:354
7.8937,-3.3698,-4.9261,7.8971,-3.2128,-4.846,0.0445,-0.1738,-0.0011,-0.0011,-0.0032,0.0011,0.0,-50.1,44.82,42.54,26.36,19.12,-121.53,0.0,1009.11,52.202,42.359154,-71.10879,-58.06,10.9525623526059,,0.0,35.48387,,9 / 19,23443,2015-08-25 14:33:06:461
7.7476,-3.2681,-4.7274,7.8841,-3.2245,-4.8593,-0.1365,-0.0436,0.132,0.0085,0.0,0.0011,0.0,-49.92,44.76,42.9,26.19,19.2,-121.65,0.0,1009.11,52.202,42.359154,-71.10879,-58.06,10.9525623526059,,0.0,35.48387,,9 / 19,23549,2015-08-25 14:33:06:567
7.78,-3.2501,-4.8411,7.8792,-3.2274,-4.8655,-0.1674,0.0156,-0.1288,-0.0383,-0.016,0.0192,0.0,-49.86,44.76,43.2,26.1,19.21,-121.7,0.0,1009.11,52.202,42.359154,-71.10879,-58.06,10.9525623526059,,0.0,35.48387,,9 / 19,23655,2015-08-25 14:33:06:673
7.6411,-3.3974,-5.0338,7.8637,-3.2344,-4.8858,-0.4273,0.3147,0.4768,-0.0383,-0.016,0.0192,0.0,-49.86,44.76,43.2,26.1,19.21,-121.7,0.0,1009.14,52.052,42.359154,-71.10879,-58.06,10.9525623526059,,0.0,35.48387,,9 / 19,23761,2015-08-25 14:33:06:779
7.9906,-3.4764,-4.8147,7.8637,-3.2344,-4.8858,-0.4273,0.3147,0.4768,0.0778,0.0437,0.016,0.0,-49.8,44.7,43.44,25.78,19.26,-121.85,0.0,1009.14,52.052,42.359154,-71.10879,-58.06,10.9525623526059,,0.0,35.48387,,9 / 19,23866,2015-08-25 14:33:06:884
7.1299,-2.9688,-4.6723,7.8636,-3.2541,-4.8729,-0.4727,0.2146,0.0115,-0.1012,-0.0149,0.0256,0.0,-49.74,44.76,43.62,28.17,19.38,-121.79,0.0,1009.12,52.052,42.359154,-71.10879,-58.06,10.9525623526059,,0.0,35.48387,,9 / 19,23973,2015-08-25 14:33:06:991
8.0457,-3.3782,-4.7369,7.8417,-3.227,-4.9259,0.204,-0.1512,0.1889,0.0096,0.0298,-0.0256,0.0,-49.74,44.76,43.62,27.07,19.21,-122.14,0.0,1009.12,52.791,42.359154,-71.10879,-58.06,10.9525623526059,,0.0,35.48387,,9 / 19,24079,2015-08-25 14:33:07:097
7.7692,-3.4441,-5.2206,7.8558,-3.2323,-4.8997,-0.0112,-0.1315,-0.261,-0.0543,-0.0277,0.0021,0.0,-49.74,44.76,43.74,27.57,19.25,-121.95,0.0,1009.11,52.791,42.359154,-71.10879,-58.06,10.9525623526059,,0.0,35.48387,,9 / 19,24185,2015-08-25 14:33:07:203
7.8626,-3.3016,-4.9752,7.8598,-3.2354,-4.8914,-0.2115,-0.1152,0.0778,0.0011,-0.0107,-0.0021,0.0,-49.74,44.76,43.92,27.73,19.26,-121.9,0.0,1009.13,52.791,42.359154,-71.10879,-58.06,10.9525623526059,,0.0,35.48387,,9 / 19,24290,2015-08-25 14:33:07:308
7.7357,-3.3842,-4.9225,7.8558,-3.2429,-4.8928,0.0283,-0.0827,0.0254,0.0085,0.0032,-0.0043,0.0,-49.68,44.7,44.04,27.76,19.31,-121.92,0.0,1009.13,53.466,42.359154,-71.10879,-58.06,10.9525623526059,,0.0,35.48387,,9 / 19,24397,2015-08-25 14:33:07:415
7.9116,-3.3746,-4.6292,7.8546,-3.2457,-4.8929,0.057,-0.1289,0.2637,0.0352,0.0181,-0.0075,0.0,-49.62,44.64,44.1,27.77,19.33,-121.92,0.0,1009.11,53.466,42.359154,-71.10879,-58.06,10.9525623526059,,0.0,35.48387,,11 / 19,24503,2015-08-25 14:33:07:521
7.8135,-3.2717,-4.9404,7.8556,-3.2532,-4.8863,0.0201,-0.1537,0.0381,-0.0138,0.0011,-0.0032,0.0,-49.5,44.64,44.1,28.74,19.37,-121.88,0.0,1009.11,53.466,42.359154,-71.10879,-58.06,10.9525623526059,,0.0,35.48387,,11 / 19,24609,2015-08-25 14:33:07:627
7.944,-3.4596,-4.9009,7.8494,-3.2604,-4.8915,-0.0167,-0.1513,-0.1926,-0.0138,0.0011,-0.0032,0.0,-49.5,44.64,44.1,28.74,19.37,-121.88,0.0,1009.11,57.723,42.359154,-71.10879,-58.06,10.9525623526059,,0.0,35.48387,,11 / 19,24715,2015-08-25 14:33:07:733
7.8147,-3.3375,-4.7812,7.8494,-3.2604,-4.8915,-0.0167,-0.1513,-0.1926,-0.0245,-0.0117,0.0053,0.0,-49.44,44.64,44.1,28.69,19.42,-121.93,0.0,1009.11,57.723,42.359154,-71.10879,-58.06,10.9525623526059,,0.0,35.48387,,11 / 19,24820,2015-08-25 14:33:07:838
7.9188,-3.3866,-4.9416,7.8553,-3.259,-4.8829,-0.0933,-0.1108,-0.012,-0.0011,-0.0096,0.0021,1.0,-49.44,44.58,44.04,28.83,19.41,-121.87,0.0,1009.1,57.723,42.359154,-71.10879,-58.06,10.9525623526059,,0.0,35.48387,,11 / 19,24927,2015-08-25 14:33:07:945
7.5824,-3.1352,-4.9129,7.8533,-3.2634,-4.8832,-0.0135,-0.0885,-0.1518,-0.0128,0.0213,-0.0085,0.0,-49.44,44.64,43.8,28.85,19.44,-121.87,0.0,1009.05,62.359,42.359154,-71.10879,-58.06,10.9525623526059,,0.0,35.48387,,11 / 19,25033,2015-08-25 14:33:08:051
7.9224,-3.3303,-5.0937,7.8486,-3.2661,-4.8888,0.0738,-0.0642,-0.2048,-0.0277,-0.0128,-0.0043,0.0,-49.32,44.64,43.44,26.76,19.45,-121.92,0.0,1009.05,62.359,42.359154,-71.10879,-58.06,10.9525623526059,,0.0,35.48387,,11 / 19,25138,2015-08-25 14:33:08:156
7.9404,-3.4129,-4.8842,7.8558,-3.2676,-4.8764,-0.0327,-0.0124,0.0414,-0.0053,0.0107,-0.0138,0.0,-48.72,44.82,43.26,26.98,19.46,-121.83,0.0,1009.09,62.359,42.359154,-71.10879,-58.06,10.9525623526059,,0.0,35.48387,,11 / 19,25244,2015-08-25 14:33:08:262
7.859,-3.5195,-4.95,7.8472,-3.2671,-4.8905,-0.0421,-0.1039,-0.111,-0.033,-0.0245,0.0053,0.0,-47.88,44.94,43.32,27.56,19.46,-121.93,0.0,1009.09,63.541,42.359154,-71.10879,-58.06,10.9525623526059,,0.0,35.48387,,11 / 19,25351,2015-08-25 14:33:08:369
7.8063,-3.322,-4.7274,7.8521,-3.2666,-4.883,-0.0865,-0.1715,-0.1795,-0.0181,-0.0202,-0.0064,0.0,-47.04,45.0,43.74,30.38,19.46,-121.88,0.0,1009.1,63.541,42.359154,-71.10879,-58.06,10.9525623526059,,0.0,35.48387,,9 / 19,25456,2015-08-25 14:33:08:474
7.75,-3.3519,-4.7285,7.8423,-3.2544,-4.9067,-0.0732,-0.0136,-0.011,-0.0181,-0.0202,-0.0064,0.0,-47.04,45.0,43.74,30.38,19.46,-121.88,0.0,1009.1,63.541,42.359154,-71.10879,-58.06,10.9525623526059,,0.0,35.48387,,9 / 19,25562,2015-08-25 14:33:08:580
7.8326,-3.1256,-4.9356,7.8358,-3.2425,-4.925,-0.0032,0.1169,-0.0106,-0.0021,0.0021,-0.0021,0.0,-46.38,45.0,44.28,30.66,19.38,-122.03,0.0,1009.1,62.192,42.359154,-71.10879,-58.06,10.9525623526059,,0.0,35.48387,,9 / 19,25668,2015-08-25 14:33:08:686
7.9631,-3.3016,-5.0111,7.8358,-3.2425,-4.925,-0.0032,0.1169,-0.0106,-0.0075,0.0053,0.0032,0.0,-46.38,44.64,44.58,32.15,19.31,-122.15,0.0,1009.11,62.192,42.359154,-71.10879,-58.06,10.9525623526059,,0.0,35.48387,,9 / 19,25775,2015-08-25 14:33:08:793
7.7417,-3.0347,-5.0913,7.8326,-3.2262,-4.9408,0.0515,0.1137,-0.2307,-0.017,-0.0117,0.0053,0.0,-46.74,44.28,44.82,32.26,19.21,-122.24,0.0,1009.11,62.192,42.359154,-71.10879,-58.06,10.9525623526059,,0.0,35.48387,,9 / 19,25881,2015-08-25 14:33:08:899
7.78,-2.7258,-5.1404,7.8348,-3.1915,-4.9598,0.2241,0.2479,-0.0644,-0.0234,-0.0149,-0.0011,0.0,-47.22,43.92,44.76,31.71,18.99,-122.34,0.0,1009.14,56.144,42.359154,-71.10879,-58.06,10.9525623526059,,0.0,35.48387,,9 / 19,25987,2015-08-25 14:33:09:005
7.8697,-2.7653,-4.9943,7.8353,-3.1351,-4.9949,0.1338,0.3087,-0.2376,-0.0256,-0.0053,0.0043,1.0,-47.64,43.68,44.76,30.02,18.64,-122.52,0.0,1009.1,56.144,42.359154,-71.10879,-58.06,10.9525623526059,,0.0,35.48387,,9 / 19,26093,2015-08-25 14:33:09:111
7.9607,-3.0323,-5.3798,7.8374,-3.0822,-5.0245,0.0479,0.0332,-0.1578,-0.0447,0.017,0.0224,1.0,-47.94,43.62,44.7,29.19,18.32,-122.66,0.0,1009.1,56.144,42.359154,-71.10879,-58.06,10.9525623526059,,0.0,35.48387,,9 / 19,26198,2015-08-25 14:33:09:216
7.6112,-2.8994,-5.1667,7.8384,-3.0453,-5.0454,-0.2272,0.1459,-0.1213,-0.065,0.0075,0.0586,0.0,-48.12,43.68,44.58,28.63,18.09,-122.77,0.0,1009.12,53.834,42.359154,-71.10879,-58.06,10.9525623526059,,0.0,35.48387,,9 / 19,26304,2015-08-25 14:33:09:322
7.7476,-2.8479,-5.0937,7.8369,-3.0165,-5.065,-0.1156,0.086,-0.2298,-0.082,0.0202,0.0288,0.0,-48.18,43.92,44.28,26.23,17.91,-122.87,0.0,1009.12,53.834,42.359154,-71.10879,-58.06,10.9525623526059,,0.0,35.48387,,9 / 19,26410,2015-08-25 14:33:09:428
7.7249,-2.9365,-5.1619,7.8387,-2.9756,-5.0863,-0.091,0.1947,0.1232,-0.082,0.0202,0.0288,0.0,-48.18,43.92,44.28,26.23,17.91,-122.87,0.0,1009.15,53.834,42.359154,-71.10879,-58.06,10.9525623526059,,0.0,35.48387,,9 / 19,26516,2015-08-25 14:33:09:534
7.9727,-2.9209,-5.2577,7.8387,-2.9756,-5.0863,-0.091,0.1947,0.1232,-0.0234,0.0415,0.0437,0.0,-48.24,44.04,43.92,25.66,17.66,-122.98,0.0,1009.15,55.575,42.359154,-71.10879,-58.06,10.9525623526059,,0.0,35.48387,,9 / 19,26623,2015-08-25 14:33:09:641
7.5956,-2.964,-5.5103,7.8582,-2.966,-5.0617,-0.2231,0.0187,-0.2618,-0.0554,0.0629,0.0288,0.0,-48.3,44.22,43.62,26.02,17.6,-122.79,0.0,1009.13,55.575,42.359154,-71.10879,-58.06,10.9525623526059,,0.0,35.48387,,9 / 19,26729,2015-08-25 14:33:09:747
8.1439,-3.0742,-4.5322,7.8718,-2.9486,-5.0508,-0.1373,0.011,-0.2081,-0.2035,0.0533,0.0778,0.0,-48.36,44.4,43.5,26.11,17.5,-122.69,0.0,1009.12,55.575,42.359154,-71.10879,-58.06,10.9525623526059,,0.0,35.48387,,9 / 19,26834,2015-08-25 14:33:09:852
8.0792,-2.8431,-4.8303,7.8484,-2.9138,-5.1071,0.0477,-0.0802,-0.487,-0.2067,-0.0043,0.0746,0.0,-48.66,44.4,43.44,22.19,17.28,-123.05,0.0,1009.12,54.253,42.359154,-71.10879,-58.06,10.9525623526059,,0.0,35.48387,,9 / 19,26941,2015-08-25 14:33:09:959
7.8195,-2.9425,-5.1056,7.868,-2.8778,-5.0973,-0.0486,-0.0647,-0.0083,-0.1076,0.0863,0.066,0.0,-49.14,44.58,43.38,21.41,17.06,-122.94,0.0,1009.11,54.253,42.359154,-71.10879,-58.06,10.9525623526059,,0.0,35.48387,,9 / 19,27047,2015-08-25 14:33:10:065
7.7225,-2.903,-5.3498,7.8843,-2.867,-5.0782,-0.1019,-0.0552,-0.1016,-0.1587,0.0756,0.081,0.0,-49.62,44.7,43.26,20.76,17.0,-122.79,0.0,1009.11,54.253,42.359154,-71.10879,-58.06,10.9525623526059,,0.0,35.48387,,9 / 19,27153,2015-08-25 14:33:10:171
7.7141,-2.8611,-5.0542,7.8971,-2.846,-5.0701,-0.0405,-0.0258,-0.0511,-0.1513,0.0948,0.098,0.0,-50.04,44.82,43.08,20.83,16.87,-122.7,0.0,1009.11,54.253,42.359154,-71.10879,-58.06,10.9525623526059,,0.0,35.48387,,9 / 19,27259,2015-08-25 14:33:10:277
7.926,-3.055,-4.9859,7.9216,-2.846,-5.0317,0.0547,-0.1552,-0.1099,-0.1651,0.0639,0.0927,0.0,-50.22,44.94,43.02,21.47,16.87,-122.42,0.0,1009.14,53.883,42.359154,-71.10879,-58.06,10.9525623526059,,0.0,35.48387,,9 / 19,27364,2015-08-25 14:33:10:382
7.8111,-2.8886,-5.0003,7.9299,-2.8469,-5.0182,-0.2588,-0.0525,-0.0156,-0.1651,0.0639,0.0927,0.0,-50.22,44.94,43.02,21.47,16.87,-122.42,0.0,1009.14,53.883,42.359154,-71.10879,-58.06,10.9525623526059,,0.0,35.48387,,9 / 19,27471,2015-08-25 14:33:10:489
7.9021,-2.8635,-4.962,7.9299,-2.8469,-5.0182,-0.2588,-0.0525,-0.0156,-0.1545,0.0746,0.0916,0.0,-50.16,45.12,42.96,21.7,16.88,-122.33,0.0,1009.14,53.883,42.359154,-71.10879,-58.06,10.9525623526059,,0.0,35.48387,,9 / 19,27577,2015-08-25 14:33:10:595
7.9763,-2.7857,-4.9392,7.9441,-2.8342,-5.0029,-0.0133,0.0042,-0.0094,-0.1566,0.0724,0.0874,0.0,-49.98,45.24,42.9,21.9,16.8,-122.2,0.0,1009.14,53.837,42.359154,-71.10879,-58.06,10.9525623526059,,0.0,35.48387,,9 / 19,27683,2015-08-25 14:33:10:701
7.9643,-2.8228,-4.8746,7.9625,-2.8154,-4.9842,-0.0413,0.0225,0.0162,-0.1481,0.0959,0.0852,0.0,-49.74,45.36,42.9,22.13,16.68,-122.04,0.0,1009.09,53.837,42.359154,-71.10879,-58.06,10.9525623526059,,0.0,35.48387,,9 / 19,27789,2015-08-25 14:33:10:807
8.0589,-2.7797,-4.9871,7.9905,-2.8017,-4.9469,0.0684,0.0221,-0.0402,-0.1587,0.066,0.0842,0.0,-49.56,45.42,42.84,22.68,16.6,-121.76,0.0,1009.1,53.837,42.359154,-71.10879,-58.06,10.9525623526059,,0.0,35.48387,,9 / 19,27894,2015-08-25 14:33:10:912
8.0122,-2.4972,-4.6902,8.0103,-2.7689,-4.9334,0.0103,0.2322,0.084,-0.13,0.1055,0.0799,0.0,-49.38,45.48,42.66,23.57,16.4,-121.63,0.0,1009.1,54.119,42.359154,-71.10879,-58.06,10.9525623526059,,0.0,35.48387,,9 / 19,28001,2015-08-25 14:33:11:019
8.1379,-2.7186,-4.9452,8.0464,-2.7541,-4.8826,0.1813,0.0474,0.0643,-0.1491,0.081,0.0799,0.0,-49.26,45.6,42.48,21.76,16.31,-121.25,0.0,1009.12,54.119,42.359154,-71.10879,-58.06,10.9525623526059,,0.0,35.48387,,9 / 19,28107,2015-08-25 14:33:11:125
8.2085,-2.6396,-4.6807,8.0837,-2.7268,-4.8362,0.2039,0.25,0.1256,-0.1406,0.0405,0.0788,0.0,-49.14,45.96,42.3,22.33,16.14,-120.89,0.0,1009.12,54.119,42.359154,-71.10879,-58.06,10.9525623526059,,0.0,35.48387,,9 / 19,28213,2015-08-25 14:33:11:231
8.3306,-2.3487,-4.628,8.1145,-2.6803,-4.8105,0.1204,0.1569,0.149,-0.1406,0.0405,0.0788,0.0,-49.14,45.96,42.3,22.33,16.14,-120.89,0.0,1009.12,54.062,42.359154,-71.10879,-58.06,10.9525623526059,,0.0,35.48387,,9 / 19,28318,2015-08-25 14:33:11:336
8.2552,-2.6205,-4.6292,8.1574,-2.6728,-4.7416,0.0978,0.0523,0.1124,-0.0905,0.0874,0.0597,0.0,-49.02,46.86,42.06,21.81,15.86,-120.66,0.0,1009.12,54.062,42.359154,-71.10879,-58.06,10.9525623526059,,0.0,35.48387,,9 / 19,28425,2015-08-25 14:33:11:443
8.3438,-2.4157,-4.6459,8.1574,-2.6728,-4.7416,0.0978,0.0523,0.1124,-0.1097,0.0107,0.066,0.0,-48.78,48.06,41.7,22.03,15.82,-120.17,0.0,1009.12,54.062,42.359154,-71.10879,-58.06,10.9525623526059,,0.0,35.48387,,8 / 19,28531,2015-08-25 14:33:11:549
8.2576,-2.7007,-4.8028,8.1652,-2.6511,-4.7404,0.2863,0.2964,0.1878,-0.082,0.0639,0.0458,0.0,-48.48,49.08,41.28,20.49,15.68,-120.14,0.0,1009.1,53.921,42.359154,-71.10879,-58.06,10.9525623526059,,0.0,35.48387,,8 / 19,28637,2015-08-25 14:33:11:655
8.1175,-2.636,-4.6878,8.1855,-2.6444,-4.709,-0.1769,-0.0239,-0.0363,-0.0692,0.0107,0.049,0.0,-48.12,49.86,40.8,20.27,15.64,-119.91,0.0,1009.1,53.921,42.359154,-71.10879,-58.06,10.9525623526059,,0.0,35.48387,,8 / 19,28743,2015-08-25 14:33:11:761
8.3282,-2.5343,-4.7118,8.1843,-2.6396,-4.7138,0.1439,0.1054,0.002,-0.0767,0.0415,0.0437,1.0,-47.46,50.16,40.5,20.86,15.61,-119.94,0.0,1009.1,53.921,42.359154,-71.10879,-58.06,10.9525623526059,,0.0,35.48387,,8 / 19,28849,2015-08-25 14:33:11:867
8.278,-2.5989,-4.5346,8.2085,-2.6288,-4.6775,0.0131,0.0299,0.1812,-0.0362,0.0415,0.0383,1.0,-46.92,50.16,40.32,19.79,15.55,-119.68,0.0,1009.1,53.722,42.359154,-71.10879,-58.06,10.9525623526059,,0.0,35.48387,,8 / 19,28954,2015-08-25 14:33:11:972
8.4491,-2.6193,-4.4017,8.2348,-2.6328,-4.6288,0.1796,-0.0331,0.2546,-0.0501,0.0117,0.033,2.0,-46.44,50.22,40.26,20.99,15.57,-119.34,0.0,1009.08,53.722,42.359154,-71.10879,-58.06,10.9525623526059,,0.0,35.48387,,8 / 19,29061,2015-08-25 14:33:12:079
8.3438,-2.5355,-4.2748,8.2532,-2.6258,-4.6,0.0906,0.0903,0.3252,0.0011,0.0064,0.0064,1.0,-46.08,50.16,40.2,21.28,15.53,-119.13,0.0,1009.08,53.722,42.359154,-71.10879,-58.06,10.9525623526059,,0.0,35.48387,,8 / 19,29167,2015-08-25 14:33:12:185
8.4503,-2.5414,-4.3886,8.2746,-2.6154,-4.5674,0.2284,-0.0122,0.2064,0.0011,0.0064,0.0064,1.0,-46.08,50.16,40.2,21.28,15.53,-119.13,0.0,1009.08,53.507,42.359154,-71.10879,-58.06,10.9525623526059,,0.0,35.48387,,8 / 19,29273,2015-08-25 14:33:12:291
8.3558,-2.6408,-4.4568,8.2889,-2.6072,-4.546,-0.0648,-0.0623,0.0186,0.0181,0.0021,-0.0138,0.0,-46.08,50.16,40.02,21.61,15.47,-118.9,0.0,1009.1,53.507,42.359154,-71.10879,-58.06,10.9525623526059,,0.0,35.48387,,8 / 19,29379,2015-08-25 14:33:12:397
8.2301,-2.6576,-4.4748,8.2889,-2.6072,-4.546,-0.0648,-0.0623,0.0186,0.0479,-0.0138,-0.0341,0.0,-46.02,50.1,39.84,21.81,15.42,-118.74,0.0,1009.1,53.507,42.359154,-71.10879,-58.06,10.9525623526059,,0.0,35.48387,,8 / 19,29485,2015-08-25 14:33:12:503
8.2241,-2.563,-4.3682,8.2917,-2.6006,-4.5447,-0.0149,0.0424,0.0269,0.032,-0.0138,-0.017,0.0,-45.96,50.16,39.6,21.8,15.38,-118.73,0.0,1009.11,52.864,42.359154,-71.10879,-58.06,10.9525623526059,,0.0,35.48387,,8 / 19,29591,2015-08-25 14:33:12:609
8.503,-2.557,-4.1779,8.3032,-2.5971,-4.5256,0.1435,0.1191,0.1945,0.0767,0.0075,-0.049,0.0,-45.9,50.22,39.42,20.58,15.36,-118.59,0.0,1009.08,52.864,42.359154,-71.10879,-58.06,10.9525623526059,,0.0,35.48387,,8 / 19,29696,2015-08-25 14:33:12:714
8.582,-2.5941,-4.0031,8.3487,-2.5872,-4.4471,0.2358,-0.1458,0.1902,0.0756,0.0021,-0.033,0.0,-45.72,50.34,39.24,21.38,15.3,-118.04,0.0,1009.08,52.864,42.359154,-71.10879,-58.06,10.9525623526059,,0.0,35.48387,,8 / 19,29803,2015-08-25 14:33:12:821
8.7125,-2.3966,-4.1372,8.3735,-2.593,-4.3967,0.2073,0.2012,0.4259,0.0895,-0.066,-0.016,0.0,-45.42,50.52,39.06,21.9,15.33,-117.7,0.0,1009.07,54.377,42.359154,-71.10879,-58.06,10.9525623526059,,0.0,35.48387,,8 / 19,29908,2015-08-25 14:33:12:926
8.2313,-2.4864,-4.2401,8.3795,-2.5844,-4.3904,-0.1662,0.1591,0.2137,0.1534,-0.0245,-0.065,0.0,-45.06,50.82,38.7,21.94,15.28,-117.65,0.0,1009.07,54.377,42.359154,-71.10879,-58.06,10.9525623526059,,0.0,35.48387,,8 / 19,30015,2015-08-25 14:33:13:033
8.4659,-2.6037,-4.2689,8.3912,-2.5938,-4.3623,0.0747,-0.0099,0.0934,0.1214,-0.0639,-0.0437,3.0,-44.76,51.12,38.34,20.87,15.34,-117.47,0.0,1009.08,54.377,42.359154,-71.10879,-58.06,10.9525623526059,,0.0,35.48387,,8 / 19,30121,2015-08-25 14:33:13:139
8.3019,-2.6073,-4.057,8.3944,-2.6004,-4.3523,-0.0805,0.011,0.1445,0.1214,-0.0639,-0.0437,3.0,-44.76,51.12,38.34,20.87,15.34,-117.47,0.0,1009.01,53.577,42.359154,-71.10879,-58.06,10.9525623526059,,0.0,35.48387,,8 / 19,30227,2015-08-25 14:33:13:245
8.5629,-2.4876,-4.3347,8.3817,-2.5844,-4.3862,-0.1373,0.1268,0.0479,0.1055,-0.0916,-0.0394,3.0,-44.58,51.3,37.86,20.99,15.38,-117.41,0.0,1009.01,53.577,42.359154,-71.10879,-58.06,10.9525623526059,,0.0,35.48387,,8 / 19,30332,2015-08-25 14:33:13:350
8.5066,-2.7019,-4.5502,8.3817,-2.5844,-4.3862,-0.1373,0.1268,0.0479,0.1523,-0.0394,-0.0511,3.0,-44.52,51.42,37.44,19.23,15.28,-117.62,0.0,1009.05,53.577,42.359154,-71.10879,-58.06,10.9525623526059,,0.0,35.48387,,8 / 19,30439,2015-08-25 14:33:13:457
8.3079,-2.6217,-3.5614,8.3629,-2.5966,-4.4146,0.0551,0.224,0.0117,0.082,-0.0373,-0.0458,3.0,-44.46,51.42,36.96,19.55,15.35,-117.83,0.0,1009.05,56.523,42.359154,-71.10879,-58.06,10.9525623526059,,0.0,35.48387,,7 / 19,30545,2015-08-25 14:33:13:563
8.8083,-2.6157,-4.5873,8.4015,-2.6268,-4.3226,0.4379,-0.0343,-0.2251,0.0597,-0.1278,-0.0298,2.0,-44.46,51.48,36.48,19.13,15.54,-117.23,0.0,1009.06,56.523,42.359154,-71.10879,-58.06,10.9525623526059,,0.0,35.48387,,7 / 19,30651,2015-08-25 14:33:13:669
8.2097,-2.7126,-4.191,8.3848,-2.6188,-4.3597,-0.1751,-0.0938,0.1686,0.1886,-0.0437,-0.0778,3.0,-44.34,51.6,36.0,18.28,15.49,-117.47,0.0,1009.07,56.523,42.359154,-71.10879,-58.06,10.9525623526059,,0.0,35.48387,,7 / 19,30757,2015-08-25 14:33:13:775
8.9124,-2.9676,-4.798,8.3645,-2.6399,-4.3858,0.5347,-0.2738,-0.8359,0.1768,-0.0117,-0.1001,3.0,-44.16,51.72,35.52,18.07,15.62,-117.67,0.0,1009.07,55.929,42.359154,-71.10879,-58.06,10.9525623526059,,0.0,35.48387,,7 / 19,30863,2015-08-25 14:33:13:881
7.841,-2.545,-4.027,8.3805,-2.6461,-4.3516,-0.3886,-0.051,-0.3075,0.0842,-0.0543,0.0011,3.0,-44.04,51.72,35.34,17.04,15.65,-117.44,0.0,1009.04,55.929,42.359154,-71.10879,-58.06,10.9525623526059,,0.0,35.48387,,7 / 19,30968,2015-08-25 14:33:13:986
8.5246,-2.4708,-3.9181,8.3894,-2.6618,-4.3246,0.4643,0.0103,0.1838,0.0905,0.0032,-0.0692,3.0,-43.92,51.72,35.16,17.34,15.75,-117.27,0.0,1009.04,55.929,42.359154,-71.10879,-58.06,10.9525623526059,,0.0,35.48387,,7 / 19,31074,2015-08-25 14:33:14:092
8.5796,-2.8874,-4.2892,8.3704,-2.6107,-4.3922,1.86,-0.5042,3.0909,0.0905,0.0032,-0.0692,3.0,-43.92,51.72,35.16,17.34,15.75,-117.27,0.0,1009.06,55.707,42.359154,-71.10879,-58.06,10.9525623526059,,0.0,35.48387,,7 / 19,31181,2015-08-25 14:33:14:199
9.0537,-3.2549,-3.0658,8.3704,-2.6107,-4.3922,1.86,-0.5042,3.0909,0.3174,0.1641,-0.0991,3.0,-43.92,51.66,35.34,16.58,15.44,-117.69,0.0,1009.06,55.707,42.359154,-71.10879,-58.06,10.9525623526059,,0.0,35.48387,,7 / 19,31287,2015-08-25 14:33:14:305
8.418,-2.5726,-4.3335,8.3195,-2.5828,-4.5039,-0.2726,-0.0628,0.3116,0.1108,0.017,-0.0149,2.0,-43.98,51.48,35.76,17.25,15.27,-118.43,0.0,1009.05,55.707,42.359154,-71.10879,-58.06,10.9525623526059,,0.0,35.48387,,7 / 19,31393,2015-08-25 14:33:14:411
8.3821,-2.6073,-4.1384,8.3377,-2.5788,-4.4724,-0.0071,0.0553,0.2969,0.0778,-0.0256,-0.032,2.0,-43.98,51.0,36.6,18.94,15.25,-118.21,0.0,1009.1,55.475,42.359154,-71.10879,-58.06,10.9525623526059,,0.0,35.48387,,9 / 19,31499,2015-08-25 14:33:14:517
8.9938,-3.0921,-5.0398,8.3594,-2.5854,-4.4278,-0.3233,0.0296,0.615,0.1087,0.0202,-0.0309,2.0,-44.04,50.4,37.98,21.31,15.29,-117.91,0.0,1009.1,55.475,42.359154,-71.10879,-58.06,10.9525623526059,,0.0,35.48387,,9 / 19,31605,2015-08-25 14:33:14:623
8.1163,-2.3774,-3.9708,8.3396,-2.596,-4.4589,0.0377,0.1623,-0.0542,0.0511,-0.0256,-0.033,2.0,-44.04,49.86,39.24,22.42,15.35,-118.13,0.0,1009.03,55.475,42.359154,-71.10879,-58.06,10.9525623526059,,0.0,35.48387,,9 / 19,31711,2015-08-25 14:33:14:729
8.1271,-2.66,-4.0534,8.3592,-2.6066,-4.4157,-0.2321,-0.0533,0.3624,0.0863,0.0117,-0.0096,2.0,-44.1,49.38,40.44,24.89,15.41,-117.85,0.0,1009.03,55.475,42.359154,-71.10879,-58.06,10.9525623526059,,0.0,35.48387,,9 / 19,31817,2015-08-25 14:33:14:835
8.4659,-2.8012,-4.1204,8.4005,-2.6224,-4.3273,0.3144,-0.2435,0.1733,0.0202,-0.0245,-0.017,2.0,-44.1,49.02,41.22,27.19,15.51,-117.25,0.0,1009.06,58.574,42.359154,-71.10879,-58.06,10.9525623526059,,0.0,35.48387,,9 / 19,31923,2015-08-25 14:33:14:941
8.576,-2.6384,-3.8906,8.4013,-2.619,-4.3278,-0.0982,0.0284,-0.2092,0.0202,-0.0245,-0.017,2.0,-44.1,49.02,41.22,27.19,15.51,-117.25,0.0,1009.02,58.574,42.359154,-71.10879,-58.06,10.9525623526059,,0.0,35.48387,,9 / 19,32029,2015-08-25 14:33:15:047
7.9739,-2.7869,-4.5622,8.3872,-2.6157,-4.3569,-0.4133,-0.1712,-0.2053,0.0629,-0.0586,-0.0447,2.0,-44.1,48.48,41.58,29.26,15.49,-117.25,0.0,1009.02,58.574,42.359154,-71.10879,-58.06,10.9525623526059,,0.0,35.48387,,9 / 19,32135,2015-08-25 14:33:15:153
8.3163,-2.8587,-4.3981,8.3872,-2.6157,-4.3569,-0.4133,-0.1712,-0.2053,0.0692,0.0309,-0.0277,2.0,-44.22,47.94,42.0,28.97,15.47,-117.45,0.0,1009.04,56.774,42.359154,-71.10879,-58.06,10.9525623526059,,0.0,35.48387,,9 / 19,32241,2015-08-25 14:33:15:259
8.7436,-2.794,-4.1899,8.397,-2.6433,-4.3212,0.0593,-0.1735,0.044,-0.0149,-0.0362,0.0256,2.0,-44.46,47.46,42.3,30.23,15.64,-117.23,0.0,1009.04,56.774,42.359154,-71.10879,-58.06,10.9525623526059,,0.0,35.48387,,9 / 19,32347,2015-08-25 14:33:15:365
8.1044,-2.8347,-4.0761,8.3989,-2.6307,-4.3252,-0.0073,-0.1262,-0.1053,0.0629,-0.0021,-0.0437,2.0,-44.82,47.22,42.54,31.06,15.56,-117.25,0.0,1009.02,56.774,42.359154,-71.10879,-58.06,10.9525623526059,,0.0,35.48387,,10 / 19,32453,2015-08-25 14:33:15:471
8.8849,-2.8156,-4.379,8.4059,-2.6553,-4.2966,0.0265,-0.3075,0.0912,-0.0117,-0.0266,0.0075,2.0,-45.18,47.16,42.66,31.47,15.71,-117.07,0.0,1009.03,56.306,42.359154,-71.10879,-58.06,10.9525623526059,,0.0,35.48387,,10 / 19,32564,2015-08-25 14:33:15:582
8.2432,-2.6983,-4.0797,8.4128,-2.6342,-4.2961,-0.1563,-0.0724,0.2284,0.0394,-0.0298,-0.0309,2.0,-45.48,47.1,42.66,31.36,15.58,-117.05,0.0,1009.03,56.306,42.359154,-71.10879,-58.06,10.9525623526059,,0.0,35.48387,,10 / 19,32665,2015-08-25 14:33:15:683
8.0182,-2.5809,-4.2665,8.4292,-2.6336,-4.2641,-0.411,0.0527,-0.0024,0.1704,0.0714,-0.0575,3.0,-45.6,46.98,42.66,31.23,15.58,-116.83,0.0,1009.03,56.306,42.359154,-71.10879,-58.06,10.9525623526059,,0.0,35.48387,,10 / 19,32771,2015-08-25 14:33:15:789
8.5126,-2.976,-4.282,8.4492,-2.6638,-4.2054,-0.0946,-0.0201,0.0371,0.0575,0.0309,-0.0128,3.0,-45.6,46.86,42.66,31.97,15.76,-116.46,0.0,1009.03,58.231,42.359154,-71.10879,-58.06,10.9525623526059,,0.0,35.48387,,10 / 19,32879,2015-08-25 14:33:15:897
8.679,-3.0694,-4.1468,8.4542,-2.6967,-4.1741,0.2954,-0.2553,0.0441,0.0575,0.0309,-0.0128,2.0,-45.6,46.86,42.66,31.97,15.76,-116.46,0.0,1008.99,58.231,42.359154,-71.10879,-58.06,10.9525623526059,,0.0,35.48387,,10 / 19,32983,2015-08-25 14:33:16:001
9.3793,-2.6911,-2.7928,8.4246,-2.6849,-4.2412,-0.2628,-0.1642,-1.0931,-0.1119,-0.0426,0.0085,2.0,-45.6,46.68,42.66,32.45,15.96,-116.28,0.0,1009.03,58.231,42.359154,-71.10879,-58.06,10.9525623526059,,0.0,35.48387,,10 / 19,33089,2015-08-25 14:33:16:107
7.9691,-2.654,-3.5267,8.4246,-2.6849,-4.2412,-0.2628,-0.1642,-1.0931,-0.0831,-0.0458,-0.0437,2.0,-45.6,46.56,42.6,31.73,15.89,-116.72,0.0,1009.03,57.042,42.359154,-71.10879,-58.06,10.9525623526059,,0.0,35.48387,,10 / 19,33194,2015-08-25 14:33:16:212
8.1977,-2.5678,-3.8487,8.4142,-2.6991,-4.2529,-0.1398,0.0942,-0.1764,-0.0447,-0.0586,-0.0043,2.0,-45.6,46.44,42.48,31.13,15.98,-116.81,0.0,1009.02,57.042,42.359154,-71.10879,-58.06,10.9525623526059,,0.0,35.48387,,10 / 19,33300,2015-08-25 14:33:16:318
8.7197,-3.0167,-4.2916,8.4197,-2.7077,-4.2364,0.3,-0.309,-0.0552,0.0458,-0.0138,-0.0032,2.0,-45.54,46.44,42.36,31.34,16.03,-116.71,0.0,1009.02,57.042,42.359154,-71.10879,-58.06,10.9525623526059,,0.0,35.48387,,10 / 19,33406,2015-08-25 14:33:16:424
8.4803,-2.9197,-4.0618,8.4274,-2.7335,-4.2043,-0.0034,-0.2101,0.2371,0.0202,-0.0256,-0.0245,2.0,-45.48,46.44,42.24,32.25,16.19,-116.51,0.0,1008.99,56.526,42.359154,-71.10879,-58.06,10.9525623526059,,0.0,35.48387,,8 / 19,33512,2015-08-25 14:33:16:530
9.0716,-3.067,-4.1755,8.4173,-2.7292,-4.2273,0.3335,-0.4084,-0.1242,0.0256,0.0,-0.0469,2.0,-45.42,46.44,42.24,32.0,16.16,-116.67,0.0,1008.99,56.526,42.359154,-71.10879,-58.06,10.9525623526059,,0.0,35.48387,,8 / 19,33619,2015-08-25 14:33:16:637
8.5772,-2.7461,-4.0917,8.425,-2.712,-4.223,-0.0381,-0.0784,-0.0686,0.0245,-0.0522,-0.0224,2.0,-45.42,46.44,42.24,31.95,16.05,-116.62,0.0,1009.0,56.526,42.359154,-71.10879,-58.06,10.9525623526059,,0.0,35.48387,,8 / 19,33725,2015-08-25 14:33:16:743
8.3522,-2.9688,-4.3287,8.4366,-2.6894,-4.2143,0.3501,-0.3237,-0.2449,0.017,0.033,-0.0533,2.0,-45.42,46.44,42.36,31.91,15.92,-116.54,0.0,1009.01,57.845,42.359154,-71.10879,-58.06,10.9525623526059,,0.0,35.48387,,8 / 19,33831,2015-08-25 14:33:16:849
8.4144,-2.9245,-4.1204,8.4437,-2.7049,-4.1901,-0.0293,-0.2196,0.0697,0.017,0.033,-0.0533,2.0,-45.42,46.44,42.36,31.91,15.92,-116.54,0.0,1009.01,57.845,42.359154,-71.10879,-58.06,10.9525623526059,,0.0,35.48387,,8 / 19,33937,2015-08-25 14:33:16:955
9.1423,-3.122,-4.5502,8.4437,-2.7049,-4.1901,-0.0293,-0.2196,0.0697,0.0192,-0.0479,-0.0011,2.0,-45.42,46.38,42.48,32.23,16.01,-116.39,0.0,1008.99,57.845,42.359154,-71.10879,-58.06,10.9525623526059,,0.0,35.48387,,8 / 19,34043,2015-08-25 14:33:17:061
7.7213,-2.9784,-3.6547,8.4393,-2.696,-4.2048,0.4636,-0.2273,-0.4136,0.0043,-0.0341,-0.017,2.0,-45.48,46.32,42.66,33.45,15.96,-116.48,0.0,1008.99,57.65,42.359154,-71.10879,-58.06,10.9525623526059,,0.0,35.48387,,8 / 19,34149,2015-08-25 14:33:17:167
9.4691,-3.0754,-4.8279,8.4414,-2.7301,-4.1785,-0.9116,-0.1765,0.0341,0.0405,-0.0394,0.0288,2.0,-45.48,46.32,42.78,33.9,16.16,-116.34,0.0,1008.98,57.65,42.359154,-71.10879,-58.06,10.9525623526059,,0.0,35.48387,,8 / 19,34254,2015-08-25 14:33:17:272
8.0697,-3.0418,-4.0007,8.443,-2.6952,-4.1979,0.0636,-0.0952,0.1241,0.0916,0.0799,-0.0138,2.0,-45.54,46.02,42.96,33.1,15.95,-116.44,0.0,1009.0,57.65,42.359154,-71.10879,-58.06,10.9525623526059,,0.0,35.48387,,8 / 19,34360,2015-08-25 14:33:17:378
8.9483,-2.9975,-4.5717,8.4552,-2.7666,-4.1262,0.6368,-0.4692,-0.2037,-0.0075,-0.0383,-0.0298,2.0,-45.54,45.6,43.14,34.23,16.39,-116.01,0.0,1009.0,59.83,42.359154,-71.10879,-58.06,10.9525623526059,,0.0,35.48387,,9 / 19,34466,2015-08-25 14:33:17:484
8.0098,-2.7162,-3.6787,8.4612,-2.7314,-4.1374,-0.4514,0.0152,0.4587,0.0234,-0.0692,-0.0245,2.0,-45.54,45.24,43.32,34.86,16.17,-116.06,0.0,1008.93,59.83,42.359154,-71.10879,-58.06,10.9525623526059,,0.0,35.48387,,9 / 19,34572,2015-08-25 14:33:17:590
7.9667,-2.5283,-4.1863,8.4195,-2.7219,-4.2277,-0.3235,0.129,0.0737,0.0586,-0.0415,-0.0266,2.0,-45.48,44.94,43.68,35.73,16.11,-116.66,0.0,1008.93,59.83,42.359154,-71.10879,-58.06,10.9525623526059,,0.0,35.48387,,9 / 19,34678,2015-08-25 14:33:17:696
7.3334,-2.7833,-3.9672,8.4045,-2.7133,-4.2629,0.0423,-0.5488,-0.51,0.0234,-0.0085,0.0447,2.0,-45.42,44.82,43.92,35.34,16.06,-116.89,0.0,1009.0,59.817,42.359154,-71.10879,-58.06,10.9525623526059,,0.0,35.48387,,9 / 19,34785,2015-08-25 14:33:17:803
8.5258,-2.9521,-4.3922,8.3809,-2.7616,-4.2783,0.1269,0.1711,0.4428,0.0234,-0.0085,0.0447,2.0,-45.42,44.82,43.92,35.34,16.06,-116.89,0.0,1008.97,59.817,42.359154,-71.10879,-58.06,10.9525623526059,,0.0,35.48387,,9 / 19,34891,2015-08-25 14:33:17:909
8.2875,-3.0299,-3.6512,8.3809,-2.7616,-4.2783,0.1269,0.1711,0.4428,-0.0181,0.0298,0.0778,2.0,-45.18,44.82,44.1,35.5,16.36,-117.04,0.0,1008.97,59.817,42.359154,-71.10879,-58.06,10.9525623526059,,0.0,35.48387,,9 / 19,34997,2015-08-25 14:33:18:015
7.501,-2.8611,-4.9057,8.3603,-2.8384,-4.2684,0.2289,-0.0394,0.0367,0.0256,-0.1065,-0.0597,2.0,-45.0,44.82,44.22,36.1,16.82,-117.05,0.0,1008.98,58.041,42.359154,-71.10879,-58.06,10.9525623526059,,0.0,35.48387,,9 / 19,35103,2015-08-25 14:33:18:121
8.3258,-3.3818,-5.2613,8.3285,-2.7956,-4.3578,-1.2154,-0.0176,-0.5216,0.147,0.0767,-0.0479,2.0,-44.82,44.82,44.16,34.93,16.56,-117.62,0.0,1008.98,58.041,42.359154,-71.10879,-58.06,10.9525623526059,,0.0,35.48387,,9 / 19,35209,2015-08-25 14:33:18:227
8.7724,-3.3686,-4.2054,8.3616,-2.843,-4.2628,-0.7157,-0.0563,0.3878,-0.0447,0.1577,0.033,2.0,-44.64,44.82,44.1,36.18,16.85,-117.01,0.0,1009.0,58.041,42.359154,-71.10879,-58.06,10.9525623526059,,0.0,35.48387,,9 / 19,35315,2015-08-25 14:33:18:333
9.7133,-2.7019,-3.814,8.4224,-2.9191,-4.0879,1.1747,-0.3585,0.3087,-0.1736,-0.1598,0.0874,2.0,-44.7,44.88,44.1,38.36,17.32,-115.89,0.0,1009.0,59.694,42.359154,-71.10879,-58.06,10.9525623526059,,0.0,35.48387,,9 / 19,35420,2015-08-25 14:33:18:438
7.7955,-3.213,-4.6567,8.3827,-2.8321,-4.2284,0.0353,-0.1152,-0.0177,0.1619,0.0032,-0.1672,2.0,-44.7,44.94,44.1,36.44,16.79,-116.77,0.0,1008.96,59.694,42.359154,-71.10879,-58.06,10.9525623526059,,0.0,35.48387,,10 / 19,35527,2015-08-25 14:33:18:545
7.2628,-2.8814,-5.0003,8.3714,-2.787,-4.2803,-1.1086,-0.0944,-0.72,0.0,0.1449,0.0181,2.0,-44.76,45.06,44.1,35.64,16.51,-117.08,0.0,1008.95,59.694,42.359154,-71.10879,-58.06,10.9525623526059,,0.0,35.48387,,10 / 19,35633,2015-08-25 14:33:18:651
8.1882,-2.8683,-4.2808,8.3751,-2.8594,-4.2251,0.4224,0.0834,0.3417,0.0,0.1449,0.0181,2.0,-44.76,45.06,44.1,35.64,16.51,-117.08,0.0,1008.95,62.823,42.359154,-71.10879,-58.06,10.9525623526059,,0.0,35.48387,,10 / 19,35739,2015-08-25 14:33:18:757
8.6838,-2.824,-3.735,8.3998,-2.8458,-4.1851,-0.0728,0.0326,0.6189,-0.1012,-0.017,0.0874,2.0,-44.88,45.06,43.92,36.66,16.95,-116.77,0.0,1008.98,62.823,42.359154,-71.10879,-58.06,10.9525623526059,,0.0,35.48387,,10 / 19,35844,2015-08-25 14:33:18:862
8.3929,-3.2417,-4.3694,8.3998,-2.8458,-4.1851,-0.0728,0.0326,0.6189,0.0959,0.0352,-0.0138,2.0,-44.88,45.12,43.56,36.95,16.87,-116.48,0.0,1008.98,62.823,42.359154,-71.10879,-58.06,10.9525623526059,,0.0,35.48387,,10 / 19,35950,2015-08-25 14:33:18:968
8.9818,-3.14,-4.4724,8.3518,-2.9278,-4.2245,-0.16,-0.1907,-0.1114,-0.0234,-0.0309,0.0586,2.0,-44.88,45.12,43.32,35.66,17.37,-116.83,0.0,1009.01,65.515,42.359154,-71.10879,-58.06,10.9525623526059,,0.0,35.48387,,10 / 19,36057,2015-08-25 14:33:19:075
7.9631,-2.6324,-3.9229,8.3751,-2.851,-4.2308,-0.886,0.4029,0.3199,0.0202,-0.0415,0.0309,3.0,-44.88,45.12,43.02,35.1,16.9,-116.8,0.0,1008.97,65.515,42.359154,-71.10879,-58.06,10.9525623526059,,0.0,35.48387,,10 / 19,36163,2015-08-25 14:33:19:181
9.3937,-3.1855,-5.0996,8.3194,-2.8715,-4.3257,1.0742,-0.314,-0.774,0.0075,0.1023,-0.1033,3.0,-44.82,45.06,42.9,34.27,17.03,-117.47,0.0,1008.97,65.515,42.359154,-71.10879,-58.06,10.9525623526059,,0.0,35.48387,,10 / 19,36269,2015-08-25 14:33:19:287
6.8295,-2.569,-3.8164,8.346,-2.9245,-4.2381,-0.56,-0.261,-0.3312,0.0,-0.0692,0.1193,3.0,-44.82,45.06,42.96,35.51,17.35,-116.92,0.0,1008.96,64.596,42.359154,-71.10879,-58.06,10.9525623526059,,0.0,35.48387,,10 / 19,36375,2015-08-25 14:33:19:393
9.5577,-2.8874,-3.9828,8.4384,-2.8347,-4.1143,0.2071,0.188,0.6846,0.0298,0.1395,-0.0064,3.0,-44.82,45.06,42.96,36.12,16.8,-115.99,0.0,1008.96,64.596,42.359154,-71.10879,-58.06,10.9525623526059,,0.0,35.48387,,9 / 19,36481,2015-08-25 14:33:19:499
8.023,-3.0957,-3.7266,8.4129,-2.9478,-4.0869,-0.232,0.1107,0.0096,0.0586,-0.1364,0.0096,2.0,-44.82,45.06,42.96,37.14,17.49,-115.91,0.0,1008.96,64.596,42.359154,-71.10879,-58.06,10.9525623526059,,0.0,35.48387,,9 / 19,36587,2015-08-25 14:33:19:605
7.1084,-2.964,-3.5889,8.3675,-2.8597,-4.24,-1.2591,-0.1043,0.6511,0.0586,-0.1364,0.0096,2.0,-44.82,45.06,42.96,37.14,17.49,-115.91,0.0,1008.96,64.596,42.359154,-71.10879,-58.06,10.9525623526059,,0.0,35.48387,,9 / 19,36693,2015-08-25 14:33:19:711
7.8626,-3.1436,-3.316,8.3698,-3.0837,-4.0752,-0.5096,0.1927,1.1267,0.2152,0.1364,0.0479,2.0,-44.82,45.12,42.84,35.06,16.95,-116.87,0.0,1008.96,64.423,42.359154,-71.10879,-58.06,10.9525623526059,,0.0,35.48387,,9 / 19,36799,2015-08-25 14:33:19:817
8.4874,-2.5486,-2.97,8.3698,-3.0837,-4.0752,-0.5096,0.1927,1.1267,-0.0597,-0.0874,0.1459,3.0,-44.82,45.12,42.78,38.22,18.33,-115.96,0.0,1009.03,64.423,42.359154,-71.10879,-58.06,10.9525623526059,,0.0,35.48387,,9 / 19,36904,2015-08-25 14:33:19:922
9.8869,-3.6703,-6.6978,8.5161,-2.7916,-3.9815,-1.4963,1.1049,1.5178,0.18,-0.1385,0.0032,3.0,-44.76,45.12,42.72,37.05,16.54,-115.06,0.0,1009.03,64.423,42.359154,-71.10879,-58.06,10.9525623526059,,0.0,35.48387,,9 / 19,37011,2015-08-25 14:33:20:029
7.5501,-3.4632,-4.2042,8.3174,-2.8315,-4.356,-0.6739,-0.3337,0.3541,0.2312,0.2642,-0.065,2.0,-44.34,45.12,42.66,34.14,16.78,-117.64,0.0,1008.97,63.264,42.359154,-71.10879,-58.06,10.9525623526059,,0.0,35.48387,,9 / 19,37117,2015-08-25 14:33:20:135
7.9703,-3.4596,-3.4225,8.2491,-3.2153,-4.2171,-0.5087,-0.2862,0.8999,-0.1939,-0.229,0.3025,3.0,-43.92,45.12,42.66,38.14,19.14,-117.08,0.0,1008.97,63.264,42.359154,-71.10879,-58.06,10.9525623526059,,0.0,35.48387,,9 / 19,37222,2015-08-25 14:33:20:240
8.9004,-1.4138,-3.6284,8.2216,-3.0776,-4.3708,0.6789,1.6639,0.7424,-0.115,-0.1055,-0.1811,3.0,-43.62,45.18,42.66,35.58,18.29,-118.0,0.0,1008.97,63.264,42.359154,-71.10879,-58.06,10.9525623526059,,0.0,35.48387,,9 / 19,37329,2015-08-25 14:33:20:347
7.1646,-3.5554,-4.3778,8.1774,-3.1157,-4.4263,-1.1313,-0.5307,-0.2244,0.3547,0.1949,-0.0277,3.0,-43.14,45.3,42.84,35.69,18.52,-118.43,0.0,1008.94,63.473,42.359154,-71.10879,-58.06,10.9525623526059,,0.0,35.48387,,9 / 19,37434,2015-08-25 14:33:20:452
8.1463,-3.705,-5.2206,8.1349,-3.2394,-4.4157,0.1825,-0.1376,0.4162,-0.2045,-0.1076,0.1395,3.0,-42.96,45.36,43.14,36.66,19.29,-118.49,0.0,1008.94,63.473,42.359154,-71.10879,-58.06,10.9525623526059,,0.0,35.48387,,11 / 19,37541,2015-08-25 14:33:20:559
8.9747,-3.0107,-4.47,8.3045,-3.0073,-4.2617,0.3195,0.139,0.425,-0.2045,-0.1076,0.1395,2.0,-42.96,45.36,43.14,36.66,19.29,-118.49,0.0,1008.95,63.473,42.359074,-71.10883,-61.29,10.9525623526059,,22.68,32.258064,217.2,11 / 19,37647,2015-08-25 14:33:20:665
8.5569,-3.2657,-4.3239,8.3045,-3.0073,-4.2617,0.3195,0.139,0.425,0.0341,-0.0266,-0.0458,2.0,-42.78,45.48,43.38,36.6,17.86,-117.17,0.0,1008.95,62.689,42.359074,-71.10883,-61.29,10.9525623526059,,22.68,32.258064,217.2,11 / 19,37753,2015-08-25 14:33:20:771
7.7297,-2.8359,-4.6567,8.2656,-2.9929,-4.3465,-0.609,0.0492,0.0872,0.0565,-0.0128,-0.0788,2.0,-42.6,45.54,43.68,36.12,17.77,-117.74,0.0,1008.94,62.689,42.359074,-71.10883,-61.29,10.9525623526059,,22.68,32.258064,217.2,11 / 19,37858,2015-08-25 14:33:20:876
8.1762,-2.9173,-4.622,8.144,-2.9131,-4.6215,-0.4443,0.1801,-0.0328,-0.0426,0.0,0.032,2.0,-42.6,45.48,43.8,33.86,17.28,-119.57,0.0,1008.93,62.689,42.359074,-71.10883,-61.29,10.9525623526059,,22.68,32.258064,217.2,11 / 19,37965,2015-08-25 14:33:20:983
8.5353,-3.4117,-4.0809,8.172,-2.9336,-4.5588,0.3861,-0.4291,-0.2308,-0.0256,0.0341,0.0234,2.0,-42.6,45.36,43.8,34.64,17.41,-119.15,0.0,1008.93,62.317,42.359074,-71.10883,-61.29,10.29836222037792,,22.68,32.258064,217.2,11 / 19,38071,2015-08-25 14:33:21:089
8.0577,-2.7545,-3.7924,8.2643,-2.957,-4.3735,-0.2066,0.2025,0.581,0.0096,-0.0415,0.0043,2.0,-42.6,45.3,43.86,36.65,17.55,-117.89,0.0,1008.92,62.317,42.359074,-71.10883,-61.29,10.29836222037792,,22.68,32.258064,217.2,11 / 19,38177,2015-08-25 14:33:21:195
8.1786,-3.0861,-5.1966,8.2115,-2.9382,-4.4842,0.2113,-0.1683,-0.3856,0.0149,0.0213,-0.0799,2.0,-42.6,45.24,43.86,35.44,17.43,-118.64,0.0,1008.92,62.317,42.359074,-71.10883,-61.29,10.29836222037792,,22.68,32.258064,217.2,11 / 19,38283,2015-08-25 14:33:21:301
8.1451,-3.1568,-5.0781,8.1374,-3.0401,-4.5509,-0.6663,-0.4135,-0.004,0.0107,0.0788,0.0511,2.0,-42.6,45.24,43.86,35.41,18.06,-119.22,0.0,1008.93,59.896,42.359074,-71.10883,-61.29,10.29836222037792,,22.68,32.258064,217.2,11 / 19,38389,2015-08-25 14:33:21:407
7.2592,-3.31,-3.6775,8.1186,-3.2747,-4.4199,-0.8593,-0.0353,0.7424,0.0107,0.0788,0.0511,2.0,-42.6,45.24,43.86,35.41,18.06,-119.22,0.0,1008.93,59.896,42.358994,-71.10891,-61.29,10.29836222037792,,24.95,32.258064,217.5,11 / 19,38494,2015-08-25 14:33:21:512
7.9835,-3.3962,-4.1875,8.1056,-3.342,-4.3932,-0.4561,0.0739,0.4823,0.0053,-0.033,0.049,2.0,-42.6,45.3,43.86,38.44,19.51,-118.56,0.0,1008.93,59.896,42.358994,-71.10891,-61.29,10.29836222037792,,24.95,32.258064,217.5,11 / 19,38601,2015-08-25 14:33:21:619
7.4172,-3.96,-4.6436,8.1056,-3.342,-4.3932,-0.4561,0.0739,0.4823,0.1012,0.0053,0.0,2.0,-42.6,45.3,43.86,39.24,19.93,-118.46,0.0,1008.9,60.978,42.358994,-71.10891,-61.29,10.29836222037792,,24.95,32.258064,217.5,11 / 19,38707,2015-08-25 14:33:21:725
8.0984,-4.0642,-4.9273,7.9849,-3.5838,-4.4235,-0.661,-0.108,0.0637,0.0533,-0.0511,0.1044,2.0,-42.6,45.3,43.8,40.94,21.44,-118.99,0.0,1008.9,60.978,42.358994,-71.10891,-61.29,10.29836222037792,,24.95,32.258064,217.5,11 / 19,38813,2015-08-25 14:33:21:831
7.8326,-3.966,-4.6783,7.9081,-3.7084,-4.4586,-0.0755,-0.2576,-0.2196,0.0266,0.0,0.0703,2.0,-42.6,45.3,43.68,41.69,22.22,-119.41,0.0,1008.93,60.978,42.358994,-71.10891,-61.29,10.29836222037792,,24.95,32.258064,217.5,11 / 19,38918,2015-08-25 14:33:21:936
7.9092,-3.8475,-4.3646,7.9244,-3.8485,-4.3085,-0.306,-0.0229,0.2455,-0.0128,0.0075,0.0149,2.0,-42.6,45.36,43.62,44.68,23.11,-118.53,0.0,1008.91,60.415,42.358994,-71.10891,-61.29,10.29836222037792,,24.95,32.258064,217.5,11 / 19,39025,2015-08-25 14:33:22:043
8.1307,-4.0869,-3.9995,7.9198,-3.8311,-4.3325,0.0553,-0.1122,-0.1435,-0.0437,-0.0618,-0.0213,2.0,-42.6,45.36,43.62,44.26,23.0,-118.68,0.0,1008.91,60.415,42.358994,-71.10891,-61.29,10.29836222037792,,24.95,32.258064,217.5,11 / 19,39131,2015-08-25 14:33:22:149
7.3155,-3.7577,-4.5083,7.8674,-3.8021,-4.4516,-0.3628,0.0444,0.0643,0.0394,0.0309,-0.0256,2.0,-42.6,45.36,43.62,42.67,22.81,-119.5,0.0,1008.92,60.415,42.358994,-71.10891,-61.29,10.29836222037792,,24.95,32.258064,217.5,11 / 19,39237,2015-08-25 14:33:22:255
7.5501,-3.9588,-4.2114,7.8221,-3.7857,-4.5446,0.0213,0.022,-0.1432,-0.0107,0.032,0.0043,2.0,-42.6,45.36,43.74,41.44,22.71,-120.16,0.0,1008.92,62.74,42.358994,-71.10891,-61.29,10.29836222037792,,24.95,32.258064,217.5,11 / 19,39343,2015-08-25 14:33:22:361
7.9452,-4.0247,-4.2341,7.8441,-3.8093,-4.4866,0.1011,-0.2154,0.2525,-0.0107,0.032,0.0043,2.0,-42.6,45.36,43.74,41.44,22.71,-120.16,0.0,1008.94,62.74,42.358994,-71.10891,-61.29,10.29836222037792,,24.95,32.258064,217.5,11 / 19,39448,2015-08-25 14:33:22:466
7.8829,-3.9409,-4.0606,7.8441,-3.8093,-4.4866,0.1011,-0.2154,0.2525,-0.0011,-0.0288,0.0309,2.0,-42.66,45.36,43.8,42.35,22.86,-119.77,0.0,1008.94,62.74,42.35892,-71.10896,-64.52,10.29836222037792,,27.36,32.258064,217.4,9 / 19,39555,2015-08-25 14:33:22:573
8.2337,-4.0821,-4.8961,7.8842,-3.8097,-4.4154,-0.2443,0.1394,0.4266,-0.0021,-0.0138,-0.0021,2.0,-42.78,45.3,43.86,43.15,22.86,-119.25,0.0,1008.92,65.11,42.35892,-71.10896,-64.52,10.29836222037792,,27.36,32.258064,217.4,9 / 19,39661,2015-08-25 14:33:22:679
7.5202,-4.2126,-4.616,7.8712,-3.8216,-4.4282,-0.6216,0.0938,0.6035,0.0724,0.0181,0.0021,2.0,-42.84,45.3,43.92,43.13,22.94,-119.36,0.0,1008.96,65.11,42.35892,-71.10896,-64.52,10.29836222037792,,27.36,32.258064,217.4,9 / 19,39766,2015-08-25 14:33:22:784
7.2856,-3.6811,-4.13,7.8648,-3.8386,-4.4249,0.1498,0.1503,0.2243,0.0011,-0.0075,-0.0117,2.0,-42.9,45.3,43.98,43.34,23.04,-119.36,0.0,1008.96,65.11,42.35892,-71.10896,-64.52,10.29836222037792,,27.36,32.258064,217.4,9 / 19,39873,2015-08-25 14:33:22:891
9.2416,-4.2653,-4.968,7.9061,-3.8368,-4.3522,-0.7774,0.3807,0.5598,0.1715,-0.0991,0.0778,2.0,-42.84,45.36,43.86,44.11,23.03,-118.83,0.0,1008.95,64.231,42.35892,-71.10896,-64.52,10.29836222037792,,27.36,32.258064,217.4,9 / 19,39979,2015-08-25 14:33:22:997
7.7141,-3.9732,-4.2174,7.8586,-3.894,-4.3874,-0.1445,-0.0792,0.17,0.0735,-0.081,0.0639,2.0,-42.84,45.48,43.74,44.32,23.4,-119.17,0.0,1008.95,64.231,42.35892,-71.10896,-64.52,10.29836222037792,,27.36,32.258064,217.4,9 / 19,40085,2015-08-25 14:33:23:103
8.4695,-3.8199,-4.525,7.8783,-3.8776,-4.3665,0.6989,-0.2368,0.1335,-0.0128,0.0874,-0.0788,2.0,-42.84,45.6,43.62,42.95,23.29,-119.0,0.0,1008.93,64.231,42.35892,-71.10896,-64.52,10.29836222037792,,27.36,32.258064,217.4,9 / 19,40191,2015-08-25 14:33:23:209
8.278,-3.7433,-4.3527,7.8616,-3.8803,-4.3942,-0.1451,-0.0391,0.3552,0.0181,-0.0107,-0.0266,2.0,-42.84,45.78,43.56,42.68,23.31,-119.2,0.0,1008.94,63.855,42.35892,-71.10896,-64.52,10.29836222037792,,27.36,32.258064,217.4,9 / 19,40297,2015-08-25 14:33:23:315
8.2025,-3.9804,-4.8926,7.7851,-3.7674,-4.6227,-1.8343,0.6681,0.0809,0.0181,-0.0107,-0.0266,2.0,-42.84,45.78,43.56,42.68,23.31,-119.2,0.0,1008.94,63.855,42.35892,-71.10896,-64.52,10.29836222037792,,27.36,32.258064,217.4,9 / 19,40402,2015-08-25 14:33:23:420
8.7664,-4.8542,-5.3032,7.8819,-3.7663,-4.4565,0.2895,0.3354,0.5636,0.1076,0.0927,0.1012,2.0,-42.9,45.96,43.68,38.96,22.59,-120.7,0.0,1008.94,63.855,42.35884,-71.10904,-70.97,10.29836222037792,,28.55,32.258064,218.0,11 / 18,40509,2015-08-25 14:33:23:527
8.7149,-3.3651,-3.3411,7.8819,-3.7663,-4.4565,0.2895,0.3354,0.5636,-0.1193,0.033,0.1449,2.0,-43.08,46.02,43.8,40.91,22.58,-119.48,0.0,1008.94,65.872,42.35884,-71.10904,-70.97,10.29836222037792,,28.55,32.258064,218.0,11 / 18,40614,2015-08-25 14:33:23:632
8.1882,-4.2174,-3.4572,7.9163,-3.9793,-4.2032,0.2718,-0.2381,0.746,0.0192,-0.1875,0.0288,2.0,-43.26,46.14,43.86,45.68,23.94,-117.97,0.0,1008.94,65.872,42.35884,-71.10904,-70.97,10.29836222037792,,28.55,32.258064,218.0,11 / 18,40721,2015-08-25 14:33:23:739
5.5426,-3.0203,-4.2282,7.8854,-3.757,-4.4581,-0.7447,-0.2521,-1.2413,0.1172,0.1917,-0.0895,3.0,-43.44,46.14,43.98,40.8,22.53,-119.48,0.0,1008.97,65.872,42.35884,-71.10904,-70.97,10.29836222037792,,28.55,32.258064,218.0,11 / 18,40827,2015-08-25 14:33:23:845
7.9871,-4.4807,-4.5358,7.6747,-3.9123,-4.6865,2.0829,0.3725,-0.5568,-0.1417,0.2035,0.0117,3.0,-43.62,46.14,43.98,39.01,23.51,-121.41,0.0,1008.97,69.869,42.35884,-71.10904,-70.97,10.29836222037792,,28.55,32.258064,218.0,11 / 18,40933,2015-08-25 14:33:23:951
10.0796,-4.549,-5.6192,7.8509,-3.7711,-4.5069,-0.1224,0.3378,2.3341,-0.0479,-0.0213,0.2887,3.0,-43.74,46.14,43.98,40.01,22.62,-119.86,0.0,1008.93,69.869,42.35884,-71.10904,-70.97,10.29836222037792,,28.55,32.258064,218.0,11 / 18,41039,2015-08-25 14:33:24:057
7.5058,-3.7421,-3.5255,7.9677,-3.7799,-4.2893,-0.3386,0.531,0.6896,0.032,-0.1577,-0.2162,3.0,-43.86,46.2,44.04,42.57,22.67,-118.3,0.0,1008.93,69.869,42.35884,-71.10904,-70.97,10.29836222037792,,28.55,32.258064,218.0,11 / 18,41145,2015-08-25 14:33:24:163
3.9744,-2.9544,-2.8192,7.9313,-3.6083,-4.4993,-3.957,0.6538,1.6802,0.6093,-0.049,0.359,2.0,-43.92,46.2,44.1,38.66,21.59,-119.57,0.0,1009.06,69.869,42.35884,-71.10904,-70.97,10.29836222037792,,28.55,32.258064,218.0,11 / 18,41250,2015-08-25 14:33:24:268
6.9959,-1.4281,-1.6029,7.3515,-4.2585,-4.898,0.717,1.2562,5.3769,0.6093,-0.049,0.359,2.0,-43.92,46.2,44.1,38.66,21.59,-119.57,0.0,1009.02,69.802,42.35884,-71.10904,-70.97,10.29836222037792,,28.55,32.258064,218.0,11 / 18,41356,2015-08-25 14:33:24:374
10.4004,-6.5074,-3.8391,7.3515,-4.2585,-4.898,0.717,1.2562,5.3769,0.2844,0.5827,0.1076,2.0,-43.98,46.08,44.16,39.28,25.74,-123.67,0.0,1009.02,69.802,42.35884,-71.10904,-70.97,10.29836222037792,,28.55,32.258064,218.0,7 / 19,41462,2015-08-25 14:33:24:480
9.9395,-2.7892,-5.0769,7.8046,-4.4527,-3.9284,1.5448,0.015,0.4412,-0.1449,-0.2461,0.327,2.0,-43.98,46.02,44.16,54.05,27.0,-116.72,0.0,1009.0,69.802,42.358788,-71.1091,-77.42,10.29836222037792,,27.83,32.258064,218.4,7 / 19,41568,2015-08-25 14:33:24:586
6.4859,-3.8235,-4.9285,8.0091,-3.8522,-4.1453,-3.5487,-0.0264,1.8517,-0.0746,-0.3025,-0.2205,2.0,-43.62,45.9,44.34,44.76,23.13,-117.36,0.0,1009.0,70.816,42.358788,-71.1091,-77.42,10.29836222037792,,27.83,32.258064,218.4,7 / 19,41674,2015-08-25 14:33:24:692
4.1037,-2.3379,-3.1412,7.6616,-3.6776,-4.8933,-3.558,1.3397,1.7521,0.3718,0.2599,-0.1193,2.0,-42.9,45.72,44.7,36.51,22.03,-122.57,0.0,1008.94,70.816,42.358788,-71.1091,-77.42,10.29836222037792,,27.83,32.258064,218.4,7 / 19,41781,2015-08-25 14:33:24:799
7.8685,-5.1787,-6.1483,7.5814,-3.6892,-5.0083,0.3937,-1.2764,0.1181,-0.3057,0.0362,0.2344,2.0,-42.18,45.6,45.06,35.6,22.1,-123.45,0.0,1009.04,70.816,42.358788,-71.1091,-77.42,10.29836222037792,,27.83,32.258064,218.4,7 / 19,41887,2015-08-25 14:33:24:905
9.7959,-3.9923,-4.0666,7.8056,-3.8246,-4.5404,1.4719,-0.8477,0.4834,-0.1502,-0.0607,0.1214,2.0,-41.46,45.48,45.42,44.22,22.95,-120.19,0.0,1009.04,69.422,42.358788,-71.1091,-77.42,10.29836222037792,,27.83,32.258064,218.4,7 / 19,41993,2015-08-25 14:33:25:011
7.7871,-3.6883,-3.7457,7.8673,-3.9151,-4.3529,0.0156,0.2843,-0.0931,-0.1438,-0.2887,-0.0799,3.0,-41.1,45.3,45.72,48.51,23.53,-118.96,0.0,1009.04,69.422,42.358788,-71.1091,-77.42,10.29836222037792,,27.83,32.258064,218.4,7 / 19,42099,2015-08-25 14:33:25:117
7.3478,-3.3615,-4.5226,7.7088,-3.6624,-4.8303,-1.1929,-0.4053,-0.3233,-0.1438,-0.2887,-0.0799,3.0,-41.1,45.3,45.72,48.51,23.53,-118.96,0.0,1009.04,69.422,42.358788,-71.1091,-77.42,10.29836222037792,,27.83,32.258064,218.4,7 / 19,42205,2015-08-25 14:33:25:223
7.2365,-4.1108,-5.2122,7.5579,-3.7574,-4.993,-0.3214,-0.3534,-0.2191,0.2376,0.2099,-0.2184,3.0,-40.98,45.06,45.84,41.22,21.93,-122.07,0.0,1008.99,64.131,42.358788,-71.1091,-77.42,10.29836222037792,,27.83,32.258064,218.4,7 / 19,42311,2015-08-25 14:33:25:329
8.0804,-3.6919,-3.0933,7.5579,-3.7574,-4.993,-0.3214,-0.3534,-0.2191,-0.1023,0.0927,0.0927,3.0,-40.8,44.7,46.14,40.1,22.53,-123.45,0.0,1008.99,64.131,42.358788,-71.1091,-77.42,10.29836222037792,,27.83,32.258064,218.4,7 / 19,42417,2015-08-25 14:33:25:435
8.2301,-3.3112,-4.4855,7.6544,-3.8549,-4.7665,0.5038,-0.214,0.7035,-0.0234,-0.0107,0.1715,3.0,-40.62,44.4,46.68,46.97,23.15,-121.91,0.0,1008.99,64.131,42.358746,-71.10917,-83.87,10.29836222037792,,25.71,32.258064,219.0,8 / 19,42523,2015-08-25 14:33:25:541
7.331,-3.9444,-4.956,7.8175,-3.7987,-4.5416,0.1193,0.1811,0.4487,0.0341,-0.0714,-0.0692,3.0,-40.2,44.28,47.58,50.22,22.79,-120.15,0.0,1009.0,63.486,42.358746,-71.10917,-83.87,10.29836222037792,,25.71,32.258064,219.0,8 / 19,42629,2015-08-25 14:33:25:647
6.9204,-4.1312,-5.023,7.7854,-3.7444,-4.6408,0.2495,-0.473,-0.6516,0.0937,0.131,-0.0618,3.0,-39.42,44.58,48.3,47.6,22.45,-120.8,0.0,1009.0,63.486,42.358746,-71.10917,-83.87,10.29836222037792,,25.71,32.258064,219.0,8 / 19,42735,2015-08-25 14:33:25:753
7.2257,-3.8559,-4.1575,7.7285,-3.8623,-4.6394,-0.5028,0.0064,0.4818,-0.0724,-0.0554,0.1651,2.0,-38.7,45.54,48.54,48.84,23.19,-120.98,0.0,1008.97,63.486,42.358746,-71.10917,-83.87,10.29836222037792,,25.71,32.258064,219.0,8 / 19,42841,2015-08-25 14:33:25:859
8.0122,-3.0107,-3.9732,7.7561,-3.8773,-4.5803,-0.4825,0.8427,0.6945,-0.0597,-0.016,-0.0256,2.0,-38.16,46.8,47.4,45.5,23.29,-120.56,0.0,1008.97,64.139,42.358746,-71.10917,-83.87,10.29836222037792,,25.71,32.258064,219.0,8 / 19,42947,2015-08-25 14:33:25:965
7.6435,-3.8642,-4.6843,7.7839,-3.782,-4.6127,-0.1584,-0.2749,-0.463,0.0682,0.0107,0.0128,3.0,-37.86,47.88,45.18,40.27,22.68,-120.65,0.0,1009.01,64.139,42.358746,-71.10917,-83.87,10.29836222037792,,25.71,32.258064,219.0,8 / 19,43052,2015-08-25 14:33:26:070
8.3989,-4.3144,-5.2672,7.7358,-3.8417,-4.6441,-0.0935,-0.2656,0.2484,0.0682,0.0107,0.0128,3.0,-37.86,47.88,45.18,40.27,22.68,-120.65,0.0,1008.96,64.139,42.358746,-71.10917,-83.87,10.29836222037792,,25.71,32.258064,219.0,8 / 19,43158,2015-08-25 14:33:26:176
7.7213,-4.0749,-4.4209,7.7564,-3.9102,-4.5518,0.6353,0.0795,-0.3815,-0.0138,-0.0245,0.0927,3.0,-38.1,48.48,42.96,37.29,23.06,-120.98,0.0,1008.96,63.851,42.358746,-71.10917,-83.87,10.29836222037792,,25.71,32.258064,219.0,8 / 19,43265,2015-08-25 14:33:26:283
8.3282,-3.6655,-4.8135,7.7564,-3.9102,-4.5518,0.6353,0.0795,-0.3815,-0.0842,-0.0618,-0.0842,2.0,-38.58,48.36,41.04,34.97,23.5,-120.41,0.0,1008.97,63.851,42.358746,-71.10917,-83.87,10.29836222037792,,25.71,32.258064,219.0,8 / 19,43371,2015-08-25 14:33:26:389
7.1359,-4.0175,-4.9943,7.7783,-3.7693,-4.6325,-0.6424,-0.2482,-0.3618,0.1182,0.0735,-0.0703,2.0,-38.94,47.1,40.32,32.47,22.6,-120.78,0.0,1008.97,63.851,42.358746,-71.10917,-83.87,10.29836222037792,,25.71,32.258064,219.0,9 / 19,43477,2015-08-25 14:33:26:495
8.157,-3.9756,-3.8403,7.7242,-3.8181,-4.6828,0.1934,-0.3981,0.0476,-0.0479,0.0905,0.0554,3.0,-39.42,46.02,40.32,33.28,22.91,-121.23,0.0,1008.97,60.53,42.35868,-71.10923,-87.1,10.29836222037792,,25.74,35.48387,219.6,9 / 19,43583,2015-08-25 14:33:26:601
8.1403,-3.5781,-4.5681,7.8386,-3.8958,-4.4215,0.1257,0.0399,0.1334,-0.0682,-0.1321,0.0415,3.0,-39.84,45.18,40.38,37.7,23.41,-119.43,0.0,1009.0,60.53,42.35868,-71.10923,-87.1,10.29836222037792,,25.74,35.48387,219.6,9 / 19,43688,2015-08-25 14:33:26:706
7.5429,-3.966,-5.0302,7.8654,-3.7383,-4.509,-0.3165,-0.0146,-0.0173,0.1108,0.0266,-0.0831,3.0,-40.02,44.52,40.56,37.27,22.41,-119.82,0.0,1009.0,60.53,42.35868,-71.10923,-87.1,10.29836222037792,,25.74,35.48387,219.6,9 / 19,43795,2015-08-25 14:33:26:813
7.4436,-3.9648,-4.9704,7.7697,-3.7608,-4.6538,-0.6482,0.0857,-0.198,0.0565,0.0863,0.0586,2.0,-40.08,44.7,40.74,35.73,22.55,-120.92,0.0,1008.95,59.31,42.35868,-71.10923,-87.1,10.29836222037792,,25.74,35.48387,219.6,9 / 19,43900,2015-08-25 14:33:26:918
8.1714,-4.0881,-4.3,7.7532,-3.8209,-4.6324,0.4182,-0.2672,0.3324,-0.0117,0.081,0.0629,2.0,-39.9,44.82,40.98,36.45,22.93,-120.86,0.0,1008.95,59.31,42.35868,-71.10923,-87.1,10.29836222037792,,25.74,35.48387,219.6,9 / 19,44006,2015-08-25 14:33:27:024
8.5653,-4.3012,-4.4281,7.8435,-3.933,-4.3795,0.535,-0.264,0.058,-0.0117,0.081,0.0629,2.0,-39.9,44.82,40.98,36.45,22.93,-120.86,0.0,1009.0,59.31,42.35868,-71.10923,-87.1,10.29836222037792,,25.74,35.48387,219.6,9 / 19,44113,2015-08-25 14:33:27:131
7.5489,-3.8235,-4.0438,7.8435,-3.933,-4.3795,0.535,-0.264,0.058,-0.0437,-0.0447,-0.0096,2.0,-39.48,45.06,41.58,42.38,23.64,-119.18,0.0,1009.0,59.28,42.35868,-71.10923,-87.1,10.29836222037792,,25.74,35.48387,219.6,9 / 19,44219,2015-08-25 14:33:27:237
7.2688,-3.5063,-4.2916,7.915,-3.8582,-4.317,-0.0776,-0.127,-0.1075,-0.0096,-0.0224,-0.0543,1.0,-38.52,45.24,42.48,42.32,23.17,-118.61,0.0,1009.01,59.28,42.35868,-71.10923,-87.1,10.29836222037792,,25.74,35.48387,219.6,9 / 19,44324,2015-08-25 14:33:27:342
7.9703,-4.0618,-4.5885,7.8949,-3.7911,-4.4123,0.0,-0.4072,-0.861,0.0149,0.0437,0.0298,2.0,-37.44,45.42,44.04,44.5,22.74,-119.2,0.0,1009.01,59.28,42.35868,-71.10923,-87.1,10.29836222037792,,25.74,35.48387,219.6,9 / 19,44431,2015-08-25 14:33:27:449
8.0098,-4.112,-4.4712,7.8684,-3.8386,-4.4186,-0.1315,-0.2363,0.3424,0.0266,0.0053,0.0533,2.0,-36.54,45.54,45.36,45.06,23.04,-119.32,0.0,1009.01,59.589,42.35859,-71.10933,-87.1,10.29836222037792,,29.2,35.48387,218.8,8 / 19,44537,2015-08-25 14:33:27:555
7.8207,-3.8343,-4.2401,7.8869,-3.8575,-4.3688,-0.0662,0.0232,0.1287,0.0256,-0.0021,0.0064,0.0,-35.94,45.24,46.26,48.43,23.16,-118.98,0.0,1009.04,59.589,42.35859,-71.10933,-87.1,10.29836222037792,,29.2,35.48387,218.8,8 / 19,44643,2015-08-25 14:33:27:661
7.9332,-4.0689,-4.2306,7.8736,-3.9047,-4.3507,0.1445,-0.2217,0.028,0.0085,0.0107,0.0085,0.0,-35.88,44.88,46.8,50.32,23.46,-118.92,0.0,1009.04,59.589,42.35859,-71.10933,-87.1,10.29836222037792,,29.2,35.48387,218.8,8 / 19,44749,2015-08-25 14:33:27:767
7.7572,-3.9277,-4.0677,7.9013,-3.9396,-4.2684,-0.1453,-0.1437,0.142,-0.017,-0.0096,-0.0277,0.0,-36.24,44.58,46.74,51.17,23.69,-118.38,0.0,1008.98,59.507,42.35859,-71.10933,-87.1,10.29836222037792,,29.2,35.48387,218.8,8 / 19,44854,2015-08-25 14:33:27:872
7.762,-4.3515,-4.6196,7.812,-4.0275,-4.3499,0.0494,-0.312,-0.6492,-0.0309,-0.033,-0.0394,1.0,-36.72,44.28,46.8,52.89,24.25,-119.11,0.0,1008.99,59.507,42.35859,-71.10933,-87.1,10.29836222037792,,29.2,35.48387,218.8,8 / 19,44960,2015-08-25 14:33:27:978
7.2018,-4.1623,-4.2665,7.7228,-4.0456,-4.4901,-0.521,-0.1167,0.2237,-0.0309,-0.033,-0.0394,1.0,-36.72,44.28,46.8,52.89,24.25,-119.11,0.0,1008.99,59.507,42.35859,-71.10933,-87.1,10.29836222037792,,29.2,35.48387,218.8,8 / 19,45066,2015-08-25 14:33:28:084
6.6295,-4.3239,-3.4345,7.7228,-4.0456,-4.4901,-0.521,-0.1167,0.2237,0.0437,0.082,-0.0085,2.0,-37.38,44.28,46.74,52.12,24.36,-120.17,0.0,1008.99,60.678,42.35859,-71.10933,-87.1,10.29836222037792,,29.2,35.48387,218.8,8 / 19,45173,2015-08-25 14:33:28:191
7.1658,-3.9181,-3.814,7.6607,-4.1854,-4.4683,-0.544,0.1559,0.5382,0.0554,-0.1459,0.1502,2.0,-38.04,44.46,46.68,53.84,25.26,-120.25,0.0,1008.99,60.678,42.35859,-71.10933,-87.1,10.29836222037792,,29.2,35.48387,218.8,8 / 19,45278,2015-08-25 14:33:28:296
7.5693,-3.7086,-3.7314,7.681,-4.1572,-4.4598,0.4186,-1.0406,0.7584,0.0032,-0.0075,-0.0107,0.0,-38.46,44.76,46.62,52.04,25.08,-120.14,0.0,1008.94,60.678,42.35859,-71.10933,-87.1,10.29836222037792,,29.2,35.48387,218.8,8 / 19,45385,2015-08-25 14:33:28:403
7.993,-3.6847,-4.9979,7.7637,-4.122,-4.3479,-0.0065,0.0722,-0.2717,-0.0511,-0.1928,-0.0341,0.0,-38.76,45.12,46.56,52.45,24.86,-119.25,0.0,1008.97,62.622,42.35859,-71.10933,-87.1,10.29836222037792,,29.2,35.48387,218.8,9 / 19,45491,2015-08-25 14:33:28:509
5.7174,-3.3818,-3.79,7.7401,-3.8921,-4.5948,-1.5882,0.3918,0.2649,0.1374,0.114,-0.1246,0.0,-38.76,45.42,46.56,47.99,23.38,-120.7,0.0,1008.97,62.622,42.358543,-71.109344,-83.87,10.29836222037792,,21.93,32.258064,213.6,9 / 19,45596,2015-08-25 14:33:28:614
7.2209,-3.7948,-4.6723,7.675,-3.8838,-4.7095,-0.4541,0.089,0.0372,0.1459,0.0831,0.1278,3.0,-38.82,45.54,46.62,45.48,23.33,-121.53,0.0,1008.97,62.622,42.358543,-71.109344,-83.87,10.29836222037792,,21.93,32.258064,213.6,9 / 19,45703,2015-08-25 14:33:28:721
7.1371,-2.9987,-2.3954,7.7162,-3.9752,-4.5637,-0.2367,-0.0207,2.2054,0.1832,0.1907,0.2056,3.0,-39.0,45.6,46.68,47.7,23.91,-120.6,0.0,1008.97,63.416,42.358543,-71.109344,-83.87,10.29836222037792,,21.93,32.258064,213.6,9 / 19,45809,2015-08-25 14:33:28:827
7.9188,-4.6376,-3.1711,7.9025,-4.2747,-3.9301,1.0805,-1.0E-4,-0.0981,0.1832,0.1907,0.2056,0.0,-39.0,45.6,46.68,47.7,23.91,-120.6,0.0,1009.01,63.416,42.358543,-71.109344,-83.87,10.29836222037792,,21.93,32.258064,213.6,9 / 19,45915,2015-08-25 14:33:28:933
9.3506,-3.2465,-4.8135,7.9248,-3.8973,-4.2635,-1.5778,-0.4841,0.7285,-0.0948,-0.2653,0.1822,0.0,-39.24,45.6,46.56,55.39,25.84,-116.44,0.0,1008.97,63.416,42.358543,-71.109344,-83.87,10.29836222037792,,21.93,32.258064,213.6,9 / 19,46020,2015-08-25 14:33:29:038
6.122,-4.1707,-4.3144,7.9248,-3.8973,-4.2635,-1.5778,-0.4841,0.7285,0.1555,-0.0597,-0.1172,0.0,-39.54,45.54,46.32,47.8,23.42,-118.28,0.0,1008.97,62.362,42.358543,-71.109344,-83.87,10.29836222037792,,21.93,32.258064,213.6,9 / 19,46126,2015-08-25 14:33:29:144
7.0617,-4.3874,-5.6312,7.6726,-4.0662,-4.557,-0.6109,-0.3212,-1.0741,0.0085,0.1811,-0.1332,2.0,-39.72,45.42,46.14,48.45,24.5,-120.71,0.0,1009.02,62.362,42.358543,-71.109344,-83.87,10.29836222037792,,21.93,32.258064,213.6,9 / 19,46233,2015-08-25 14:33:29:251
7.343,-4.6172,-3.5027,7.6064,-4.1826,-4.5628,0.3077,-0.5951,0.3466,-0.0085,0.1886,0.066,2.0,-39.84,45.36,46.02,49.74,25.25,-120.96,0.0,1009.02,62.362,42.358543,-71.109344,-83.87,10.29836222037792,,21.93,32.258064,213.6,9 / 19,46339,2015-08-25 14:33:29:357
8.7759,-4.3551,-4.0725,7.7029,-4.4371,-4.141,0.6134,-0.5812,0.0146,-0.1055,-0.1172,0.0522,2.0,-39.96,45.3,45.96,56.4,26.9,-118.26,0.0,1008.98,62.362,42.358543,-71.109344,-83.87,10.29836222037792,,21.93,32.258064,213.6,9 / 19,46444,2015-08-25 14:33:29:462
7.452,-4.8483,-4.5346,7.7507,-4.4043,-4.0865,-0.3981,-0.3267,-0.0686,-0.0064,-0.0692,-0.0245,2.0,-40.08,45.3,45.9,56.33,26.69,-117.8,0.0,1008.98,62.172,42.35853,-71.10936,-77.42,10.29836222037792,,16.52,32.258064,222.1,9 / 19,46551,2015-08-25 14:33:29:569
7.4639,-4.2725,-4.5047,7.6564,-4.3815,-4.2839,-0.1925,0.1091,-0.2208,0.0149,-0.0075,-0.0277,3.0,-40.2,45.3,45.48,53.06,26.54,-119.23,0.0,1009.03,62.172,42.35853,-71.10936,-77.42,10.29836222037792,,16.52,32.258064,222.1,9 / 19,46657,2015-08-25 14:33:29:675
7.6962,-4.6256,-3.8654,7.6232,-4.3405,-4.3838,-0.7866,0.2847,1.0654,0.016,0.0107,0.0256,3.0,-40.26,45.24,45.0,51.67,26.27,-119.9,0.0,1009.0,62.172,42.35853,-71.10936,-77.42,10.29836222037792,,16.52,32.258064,222.1,9 / 19,46763,2015-08-25 14:33:29:781
8.0828,-4.6076,-4.6723,7.6415,-4.3689,-4.3233,-0.6061,0.6148,0.392,0.016,0.0107,0.0256,3.0,-40.26,45.24,45.0,51.67,26.27,-119.9,0.0,1009.0,57.917,42.35853,-71.10936,-77.42,10.29836222037792,,16.52,32.258064,222.1,9 / 19,46869,2015-08-25 14:33:29:887
7.8554,-4.8387,-5.1451,7.5787,-4.3525,-4.4484,-0.4165,-0.4802,0.1365,-0.0511,-0.0075,-0.0469,3.0,-40.26,45.18,44.58,52.56,26.46,-119.5,0.0,1009.03,57.917,42.35853,-71.10936,-77.42,10.29836222037792,,16.52,32.258064,222.1,9 / 19,46975,2015-08-25 14:33:29:993
7.5633,-4.6974,-4.2198,7.5787,-4.3525,-4.4484,-0.4165,-0.4802,0.1365,0.0256,0.065,0.0192,3.0,-40.2,45.06,44.28,49.48,26.35,-120.41,0.0,1009.03,57.917,42.35853,-71.10936,-77.42,10.29836222037792,,16.52,32.258064,222.1,9 / 19,47081,2015-08-25 14:33:30:099
8.4467,-4.391,-4.5526,7.611,-4.4283,-4.3165,0.455,-0.001,0.1111,-0.0405,-0.0756,0.0533,4.0,-40.14,45.0,44.28,51.71,26.84,-119.56,0.0,1008.98,56.562,42.35853,-71.10936,-77.42,10.29836222037792,,16.52,32.258064,222.1,9 / 19,47187,2015-08-25 14:33:30:205
7.4699,-4.379,-4.2701,7.6752,-4.27,-4.3621,-0.2053,-0.109,0.092,0.0277,-0.0298,-0.0629,3.0,-40.08,45.0,44.46,49.3,25.81,-119.61,0.0,1008.99,56.562,42.35853,-71.10936,-77.42,10.29836222037792,,16.52,32.258064,222.1,9 / 19,47293,2015-08-25 14:33:30:311
7.4029,-4.2054,-4.634,7.591,-4.2697,-4.5074,-0.1702,-0.0794,-0.1709,-0.0053,0.016,0.0373,3.0,-39.9,45.0,44.58,49.63,25.81,-120.7,0.0,1008.99,56.562,42.35853,-71.10936,-77.42,10.29836222037792,,16.52,32.258064,222.1,9 / 19,47399,2015-08-25 14:33:30:417
7.4579,-3.978,-4.2557,7.6001,-4.2621,-4.4992,-0.117,0.113,0.1657,-0.0202,-0.0394,0.0266,3.0,-39.72,45.0,44.7,49.62,25.76,-120.62,0.0,1009.01,55.058,42.358517,-71.10937,-77.42,10.29836222037792,,15.59,32.258064,219.7,8 / 19,47505,2015-08-25 14:33:30:523
7.3682,-4.3706,-4.6962,7.6034,-4.2242,-4.5292,0.0855,-0.2482,-0.41,-0.0032,0.065,-0.0266,3.0,-39.6,45.0,44.7,48.86,25.52,-120.78,0.0,1009.01,55.058,42.358517,-71.10937,-77.42,10.29836222037792,,15.59,32.258064,219.7,8 / 19,47611,2015-08-25 14:33:30:629
7.6782,-4.6855,-4.4197,7.5612,-4.3319,-4.4981,0.117,-0.3536,0.0784,-0.0341,-0.0213,0.0554,3.0,-39.6,45.0,44.76,50.5,26.21,-120.75,0.0,1009.02,55.058,42.358517,-71.10937,-77.42,10.29836222037792,,15.59,32.258064,219.7,8 / 19,47717,2015-08-25 14:33:30:735
8.278,-4.3742,-4.7262,7.6062,-4.3196,-4.4335,0.2851,-0.057,0.0341,-0.0341,-0.0213,0.0554,3.0,-39.6,45.0,44.76,50.5,26.21,-120.75,0.0,1009.03,55.103,42.358517,-71.10937,-77.42,10.29836222037792,,15.59,32.258064,219.7,8 / 19,47823,2015-08-25 14:33:30:841
7.4986,-4.7537,-4.8578,7.6062,-4.3196,-4.4335,0.2851,-0.057,0.0341,-0.0565,-0.016,-0.0362,3.0,-39.6,45.06,44.94,50.96,26.13,-120.24,0.0,1009.03,55.103,42.358517,-71.10937,-77.42,10.29836222037792,,15.59,32.258064,219.7,8 / 19,47929,2015-08-25 14:33:30:947
7.1826,-4.3826,-4.6795,7.5559,-4.3163,-4.5218,-0.6822,0.0092,0.1189,0.0149,0.0032,-0.0096,3.0,-39.6,45.24,45.06,50.07,26.11,-120.9,0.0,1009.04,55.103,42.358517,-71.10937,-77.42,10.29836222037792,,15.59,32.258064,219.7,8 / 19,48034,2015-08-25 14:33:31:052
7.4795,-4.2353,-4.5191,7.5171,-4.3117,-4.5904,-0.2388,0.0453,0.3335,-0.0213,0.0202,0.0405,3.0,-39.6,45.48,45.24,49.31,26.08,-121.41,0.0,1009.04,54.853,42.358517,-71.10937,-77.42,10.29836222037792,,15.59,32.258064,219.7,8 / 19,48141,2015-08-25 14:33:31:159
7.4172,-4.276,-4.3539,7.5532,-4.2896,-4.5518,-0.136,0.0135,0.1979,-0.0202,-0.0021,0.0138,0.0,-39.54,45.72,45.3,47.81,25.94,-121.07,0.0,1009.0,54.853,42.358517,-71.10937,-77.42,10.29836222037792,,15.59,32.258064,219.7,8 / 19,48247,2015-08-25 14:33:31:265
7.3155,-4.4712,-4.5107,7.5691,-4.2534,-4.5592,0.0169,-0.1076,-0.0221,-0.0032,0.0522,-0.0075,3.0,-39.48,45.96,45.3,47.49,25.7,-121.06,0.0,1009.03,54.853,42.358517,-71.10937,-77.42,10.29836222037792,,15.59,32.258064,219.7,8 / 19,48352,2015-08-25 14:33:31:370
8.0553,-4.8554,-5.0087,7.5734,-4.3032,-4.5052,0.2246,-0.484,-0.221,-0.0266,0.0181,0.0256,3.0,-39.48,45.96,45.3,48.58,26.03,-120.75,0.0,1009.03,55.093,42.358517,-71.10937,-77.42,10.29836222037792,,15.59,32.258064,219.7,9 / 19,48459,2015-08-25 14:33:31:477
7.4711,-4.5981,-4.5131,7.5694,-4.3277,-4.4883,-0.0671,-0.2919,-0.099,-0.0234,-0.0064,0.0053,3.0,-39.42,45.96,45.36,49.02,26.19,-120.67,0.0,1008.99,55.093,42.35848,-71.109406,-77.42,10.29836222037792,,16.13,35.48387,219.2,9 / 19,48565,2015-08-25 14:33:31:583
7.5274,-4.5083,-4.5514,7.5379,-4.3571,-4.5128,-0.0501,-0.2326,-0.2971,-0.0138,0.0565,0.0011,3.0,-39.42,45.96,45.42,49.13,26.38,-120.91,0.0,1008.99,55.093,42.35848,-71.109406,-77.42,10.29836222037792,,16.13,35.48387,219.2,9 / 19,48671,2015-08-25 14:33:31:689
7.6734,-4.8937,-4.871,7.4561,-4.4422,-4.5654,-0.0281,-0.1176,0.3432,-0.0138,0.0565,0.0011,3.0,-39.42,45.96,45.42,49.13,26.38,-120.91,0.0,1009.01,55.098,42.35848,-71.109406,-77.42,10.29836222037792,,16.13,35.48387,219.2,9 / 19,48777,2015-08-25 14:33:31:795
7.5693,-4.5011,-4.2796,7.4561,-4.4422,-4.5654,-0.0281,-0.1176,0.3432,-0.032,0.0043,0.0383,3.0,-39.42,46.02,45.42,49.66,26.93,-121.48,0.0,1009.01,55.098,42.35848,-71.109406,-77.42,10.29836222037792,,16.13,35.48387,219.2,9 / 19,48883,2015-08-25 14:33:31:901
7.3694,-4.4185,-4.3167,7.5214,-4.4348,-4.4644,0.2059,-0.0531,0.1584,-0.033,0.0011,-0.0181,3.0,-39.42,46.08,45.42,50.53,26.89,-120.69,0.0,1009.0,55.098,42.35848,-71.109406,-77.42,10.29836222037792,,16.13,35.48387,219.2,9 / 19,48989,2015-08-25 14:33:32:007
7.1802,-4.5358,-4.7238,7.5034,-4.4209,-4.5083,-0.3232,-0.1149,-0.2155,-0.0554,-0.0415,0.0096,3.0,-39.42,46.2,45.42,49.95,26.8,-121.0,0.0,1009.02,55.306,42.35848,-71.109406,-77.42,10.29836222037792,,16.13,35.48387,219.2,9 / 19,49095,2015-08-25 14:33:32:113
7.3813,-4.4245,-4.616,7.4652,-4.3807,-4.6098,-0.0036,0.0077,-0.005,-0.0554,0.0138,0.0426,3.0,-39.48,46.32,45.54,50.2,26.53,-121.7,0.0,1009.02,55.306,42.35848,-71.109406,-77.42,10.29836222037792,,16.13,35.48387,219.2,9 / 19,49201,2015-08-25 14:33:32:219
7.7536,-4.3108,-4.4975,7.5303,-4.3267,-4.5545,0.2855,0.0806,-0.0136,-0.0341,-0.0192,-0.0107,4.0,-39.6,46.38,45.48,48.23,26.18,-121.17,0.0,1008.99,55.306,42.35848,-71.109406,-77.42,10.29836222037792,,16.13,35.48387,219.2,9 / 19,49307,2015-08-25 14:33:32:325
7.3897,-4.6352,-4.6627,7.5407,-4.2813,-4.5802,-0.2791,-0.3287,-0.1568,0.0,0.0373,0.0138,4.0,-39.78,46.44,45.42,47.42,25.89,-121.27,0.0,1008.99,55.049,42.35848,-71.109406,-77.42,10.29836222037792,,16.13,35.48387,219.2,9 / 19,49413,2015-08-25 14:33:32:431
7.8254,-4.5849,-4.6124,7.5065,-4.3272,-4.5933,0.2555,-0.2625,0.115,-0.0426,0.0096,0.0234,4.0,-39.96,46.44,45.3,47.82,26.18,-121.46,0.0,1009.06,55.049,42.358467,-71.10941,-80.65,10.29836222037792,,8.21,32.258064,219.6,10 / 19,49519,2015-08-25 14:33:32:537
7.3466,-4.4748,-4.5023,7.5328,-4.3227,-4.5542,-0.1862,-0.1521,0.0519,-0.0426,0.0096,0.0234,4.0,-39.96,46.44,45.3,47.82,26.18,-121.46,0.0,1009.03,55.049,42.358467,-71.10941,-80.65,10.29836222037792,,8.21,32.258064,219.6,10 / 19,49624,2015-08-25 14:33:32:642
7.343,-4.4616,-4.604,7.5127,-4.3406,-4.5705,-0.1278,-0.1282,-0.048,-0.0053,0.0053,-0.0085,4.0,-40.2,46.32,45.12,48.18,26.15,-121.16,0.0,1009.03,55.011,42.358467,-71.10941,-80.65,10.29836222037792,,8.21,32.258064,219.6,10 / 19,49731,2015-08-25 14:33:32:749
7.5477,-4.2892,-4.4005,7.5127,-4.3406,-4.5705,-0.1278,-0.1282,-0.048,-0.0277,0.0256,0.0117,3.0,-40.26,45.9,45.12,48.23,26.27,-121.31,0.0,1009.01,55.011,42.358467,-71.10941,-80.65,10.29836222037792,,8.21,32.258064,219.6,10 / 19,49836,2015-08-25 14:33:32:854
7.7225,-4.3598,-4.3958,7.5542,-4.2948,-4.5452,0.0019,0.0726,0.2189,-0.0128,0.0021,0.016,3.0,-40.32,45.42,45.18,49.56,25.97,-121.03,0.0,1009.01,55.011,42.358467,-71.10941,-80.65,10.29836222037792,,8.21,32.258064,219.6,10 / 19,49942,2015-08-25 14:33:32:960
7.7297,-4.6184,-4.5729,7.6085,-4.2673,-4.48,0.1511,-0.2577,-0.002,-0.0021,0.0437,0.0202,4.0,-40.26,45.0,45.24,49.87,25.79,-120.49,0.0,1009.0,56.044,42.358467,-71.10941,-80.65,10.29836222037792,,8.21,32.258064,219.6,10 / 19,50049,2015-08-25 14:33:33:067
7.6124,-4.3455,-4.4209,7.6107,-4.3017,-4.4433,0.0891,-0.0581,-0.0267,-0.0426,-0.0426,0.0128,4.0,-40.14,44.64,45.24,50.64,26.02,-120.28,0.0,1009.0,56.044,42.358467,-71.10941,-80.65,10.29836222037792,,8.21,32.258064,219.6,10 / 19,50155,2015-08-25 14:33:33:173
7.349,-4.5059,-4.6136,7.5888,-4.2827,-4.4987,-0.2398,-0.2232,-0.1149,-0.0107,0.0032,0.0,4.0,-39.78,44.76,45.24,49.87,25.89,-120.66,0.0,1009.0,56.044,42.358467,-71.10941,-80.65,10.29836222037792,,8.21,32.258064,219.6,10 / 19,50261,2015-08-25 14:33:33:279
7.3382,-4.4951,-4.5837,7.5305,-4.3325,-4.5488,-0.2641,-0.2285,-0.0541,-0.0213,0.0021,0.0181,4.0,-39.48,45.0,45.24,50.11,26.22,-121.13,0.0,1009.02,54.637,42.358467,-71.10941,-80.65,10.29836222037792,,8.21,32.258064,219.6,10 / 19,50367,2015-08-25 14:33:33:385
7.4148,-4.3694,-4.4807,7.5103,-4.3465,-4.5688,0.0506,0.0753,0.1491,-0.0256,-0.0075,0.0096,4.0,-39.18,45.24,45.36,50.09,26.31,-121.31,0.0,1009.02,54.637,42.358467,-71.10941,-80.65,10.29836222037792,,8.21,32.258064,219.6,10 / 19,50473,2015-08-25 14:33:33:491
7.6076,-4.2533,-4.4951,7.5674,-4.2831,-4.5343,-0.0017,0.0154,0.0248,-0.0256,-0.0075,0.0096,4.0,-39.18,45.24,45.36,50.09,26.31,-121.31,0.0,1009.02,54.637,42.358437,-71.10942,-80.65,10.29836222037792,,8.5,32.258064,214.7,10 / 19,50579,2015-08-25 14:33:33:597
7.6195,-4.3108,-4.4999,7.5674,-4.2831,-4.5343,-0.0017,0.0154,0.0248,0.0053,0.0011,0.0117,4.0,-38.94,45.48,45.42,49.64,25.9,-120.93,0.0,1009.02,52.312,42.358437,-71.10942,-80.65,10.29836222037792,,8.5,32.258064,214.7,10 / 19,50685,2015-08-25 14:33:33:703
