DateTime,latitude,longitude,altitude,speed,accelerometerX,accelerometerY,accelerometerZ,gyroscopeX,gyroscopeY,gyroscopeZ,orientationZ,orientationY,orientationX,userAccelerationX,userAccelerationY,userAccelerationZ,quaternionX,quaternionY,quaternionZ,quaternionW,gravityX,gravityY,gravityZ,magneticFieldX,magneticFieldY,magneticFieldZ
2015-08-27 10:09:54.682,42.3504870402,-71.1106910774,13.07316,-1.0,-0.0425881030304,-0.0433072494718,-1.20440738658,-0.0768895294204,-0.3974772314,-0.101978940438,-0.030951738756,0.247127897461,0.343404235233,0.0271287421808,-0.000689552606066,-0.00849521597402,0.176117279303,0.111317282569,0.00165437830562,0.978053387891,9.4140127499e-09,-1.3368075118e-08,-0.999999991022,0.0,0.0,0.0
2015-08-27 10:09:54.711,42.3504870402,-71.1106910774,13.07316,-1.0,-0.016328332387,-0.0452502748572,-1.05112304764,-0.181714814226,-0.425038148911,0.106819655209,-0.0297047331411,0.222770456211,0.334655905676,-0.0283883162666,-0.0494713542583,-0.199126431746,0.170832302308,0.100781885625,0.000363538891721,0.980132237944,9.54409629106e-09,5.931064277e-10,-0.999999978181,0.0,0.0,0.0
2015-08-27 10:09:54.763,42.3504870402,-71.1106910774,13.07316,-1.0,-0.0684803256381,0.06671618767,-0.886758299919,0.023462731966,0.0778093481559,0.107000742477,-0.0194707397446,0.199718426679,0.33485160558,-0.00261318638024,-0.029279529019,-0.100090852575,0.169809123009,0.0910992403792,0.00419835169334,0.981248268273,-1.20631413192e-09,1.16080335059e-08,-1.00000001616,0.0,0.0,0.0
2015-08-27 10:09:54.823,42.3504870402,-71.1106910774,13.07316,-1.0,-0.0651150006477,-0.00985911647288,-0.889164963504,-0.155203065866,-0.146231894391,-0.00732023402248,-0.015808063331,0.198678896204,0.329733090715,-0.0638553980566,0.0185591973368,0.114504081437,0.167086494721,0.0911675294933,0.00592166088943,0.981700320251,-9.58408269414e-09,2.04390569276e-08,-1.00000001966,0.0,0.0,0.0
2015-08-27 10:09:54.880,42.3504870402,-71.1106910774,13.07316,-1.0,-0.0609599483238,-0.0293235248409,-0.865528049533,0.0373477541547,0.22587979963,-0.0639250700923,-0.0194071592194,0.203288445856,0.330238738115,-0.0578157936661,-0.0284037431168,0.115662792219,0.167609761744,0.0929560289077,0.00435210087319,0.981451579894,7.79956461916e-09,3.83959710066e-09,-0.99999997818,0.0,0.0,0.0
2015-08-27 10:09:54.938,42.3504870402,-71.1106910774,13.07316,-1.0,0.0380855011105,-0.0838384703086,-1.16829667732,-0.117306133456,-0.443798247498,0.0309783470669,-0.0190086597353,0.190094249734,0.326146164564,0.00452335373881,-0.0733462798489,-0.0755786981893,0.165192739325,0.0870688952995,0.00352856391195,0.982404150837,-1.67158585584e-09,-3.90582107136e-09,-0.999999985117,0.0,0.0,0.0
2015-08-27 10:09:54.996,42.3504870402,-71.1106910774,13.07316,-1.0,-0.00528425972252,0.00972512380909,-0.923413182269,-0.139302766831,-0.112819451082,0.138060644686,-0.0143066560839,0.174450201717,0.324759843002,0.0522116924471,-0.0844702062562,-0.171400990012,0.163941688653,0.080276721142,0.0048824792681,0.983186112677,-5.04480632268e-09,8.99787587754e-09,-0.999999990964,0.0,0.0,0.0
2015-08-27 10:09:55.061,42.3504870402,-71.1106910774,13.07316,-1.0,-0.0806257444795,0.0216965328327,-1.07096039797,-0.285944913458,-0.425802359268,-0.142475750795,-0.00649904601707,0.1631040222,0.316000411634,0.00522247817712,0.0042696968607,0.115170108669,0.159064566992,0.0759539593822,0.00797263523485,0.984309858057,9.83052958481e-10,-1.30688125697e-09,-1.00000002193,0.0,0.0,0.0
2015-08-27 10:09:55.113,42.3504870402,-71.1106910774,13.07316,-1.0,0.0031456584874,-0.0242830452375,-1.16198791554,-0.147515471713,-0.275664749567,0.282080716855,-0.00833886675143,0.136591353948,0.305937587515,-0.0452627070762,0.0080793124588,-0.181216083138,0.153632783333,0.0636909859583,0.00495558901838,0.986060783284,-4.4472653199e-09,1.43057229609e-09,-1.00000001714,0.0,0.0,0.0
2015-08-27 10:09:55.215,42.3504870402,-71.1106910774,13.07316,-1.0,0.0542670670482,-0.00301529767181,-0.926202620225,-0.259943927757,-0.444671777717,0.294514853532,0.00946933867874,0.11542826093,0.296402903012,0.0426810862473,-0.0249086899234,-0.0501003919971,0.148105779275,0.055313808341,0.0125954151338,0.987343109699,3.41999304571e-09,-3.70102018509e-09,-1.00000000087,0.0,0.0,0.0
2015-08-27 10:09:55.232,42.3504870402,-71.1106910774,13.07316,-1.0,-0.00731561544698,-0.035138935009,-1.06849903891,-0.476951027754,0.310371908342,-0.311878284177,0.000420978815988,0.131674770872,0.268824149891,-0.0169403644135,-0.0096749582951,0.150743070762,0.13483367419,0.0628985868602,0.00831888877772,0.988834892267,3.65125141927e-09,4.36222387184e-09,-0.999999981521,0.0,0.0,0.0
2015-08-27 10:09:55.303,42.3504870402,-71.1106910774,13.07316,-1.0,0.0577982830674,-0.0898887276735,-1.23397450297,0.0900487149424,0.170634936863,-0.00320737203272,-0.0109888698272,0.135867742811,0.258709352494,-0.0123551247748,-0.0458197632154,-0.0680479201767,0.130192133665,0.064349775688,0.00242329071668,0.989395392329,2.33522548521e-10,-2.66809056554e-09,-0.999999980623,0.0,0.0,0.0
2015-08-27 10:09:55.347,42.3504870402,-71.1106910774,13.07316,-1.0,0.0966011264783,-0.0357267258303,-1.19677310673,-0.194198143207,0.013239568201,0.41672931916,-0.0109091728263,0.144644620737,0.257205276415,0.0627679397433,-0.0773292425149,-0.214045446943,0.129577768395,0.0685829462857,0.00294232481261,0.989190236578,3.28314021802e-09,3.83213654142e-10,-0.999999974516,0.0,0.0,0.0
2015-08-27 10:09:55.405,42.3504870402,-71.1106910774,13.07316,-1.0,-0.0246694672405,0.0731631363857,-1.22997521609,0.0760801736679,-0.288805212445,0.201262025117,0.00954089655131,0.14605513713,0.244838919046,0.0500418046187,-0.00688291275233,-0.164404682244,0.122731656441,0.0708497017686,0.0132324271223,0.989819257814,4.1537617651e-09,-1.89429485444e-10,-0.999999995996,0.0,0.0,0.0
2015-08-27 10:09:55.464,42.3504870402,-71.1106910774,13.07316,-1.0,-0.0206818628181,0.0342493980387,-0.403343313775,0.587945962977,0.713772910218,0.370962261191,0.0225028127685,0.138258103185,0.255948792124,0.00377940042382,0.128507446144,0.0152597017699,0.127747211215,0.067738831259,0.0197817514456,0.989293072389,8.74417951935e-09,8.36247630127e-09,-0.999999979373,0.0,0.0,0.0
2015-08-27 10:09:55.522,42.3504870402,-71.1106910774,13.07316,-1.0,-0.0260773978211,-0.0242408335044,-0.437658061153,0.398767247443,0.793892382683,0.415922878137,0.0322156730528,0.184029123607,0.290574485756,-0.0364426314472,0.0394449254196,0.644296968378,0.145104778054,0.0894651255383,0.0288827825006,0.984939784745,-1.58966383113e-09,-1.37862664353e-08,-0.999999993618,0.0,0.0,0.0
2015-08-27 10:09:55.580,42.3504870402,-71.1106910774,13.07316,-1.0,0.0111087866843,-0.134686963259,-0.938688923208,-1.54195258588,-0.113014427026,-0.547772160429,0.0261445517472,0.1905522096,0.260617521961,-0.00521636867916,-0.0495592460482,0.277350927268,0.130455377588,0.0928329296845,0.025023591799,0.986781263238,-2.60789603801e-09,-5.13952147117e-09,-1.00000001057,0.0,0.0,0.0
2015-08-27 10:09:55.639,42.3504870402,-71.1106910774,13.07316,-1.0,0.0164434905959,-0.362649886479,-1.4223832413,0.86241270387,0.711772987474,0.136327917967,-0.00153838131664,0.180882988199,0.220719756816,0.0137497566429,-0.173359968405,0.0677134885017,0.111534677197,0.0874685177735,0.00862506356852,0.989866093196,3.73200359505e-09,-3.8467798094e-09,-0.999999994935,0.0,0.0,0.0
2015-08-27 10:09:55.700,42.3504870402,-71.1106910774,13.07316,-1.0,0.27516971212,0.020605572701,-1.05643285667,0.4122624908,-0.207878968405,0.861980246201,-0.00227081485082,0.224835872754,0.258769052054,0.0223014786067,-0.41287117624,-0.338598489572,0.13154751963,0.107285244102,0.0122189876377,0.985411499232,5.97521218615e-09,7.48148358456e-09,-0.999999981247,0.0,0.0,0.0
2015-08-27 10:09:55.756,42.3504870402,-71.1106910774,13.07316,-1.0,-0.0284473965811,0.144989395723,-1.04313848353,-0.663860648427,-0.294415942126,-0.28988703925,0.0462359981794,0.217930698554,0.272205819736,0.271961906394,0.0646356119658,0.00141076533518,0.13553789432,0.106859344556,0.0377289455293,0.984269823958,1.28418761736e-10,-8.91412453748e-09,-0.999999986599,0.0,0.0,0.0
2015-08-27 10:09:55.814,42.3504870402,-71.1106910774,13.07316,-1.0,-0.309411991107,0.155107456235,-1.47052144629,0.190488055637,0.56001781606,-0.102236452347,0.0360396043988,0.203196213724,0.242089256356,-0.198689064851,0.132433110547,-0.308866332408,0.120772443107,0.0998808220743,0.0301639748791,0.987181833801,-1.13881751668e-08,1.18447392623e-08,-1.00000001862,0.0,0.0,0.0
2015-08-27 10:09:55.873,42.3504870402,-71.1106910774,13.07316,-1.0,0.0849262034753,0.0110438176111,-1.15724241536,-0.395165284321,-0.158042400984,0.0338551073113,0.0225955447086,0.226551649151,0.243309298952,-0.179034093993,0.111702280559,-0.184432727448,0.122428127047,0.110204917468,0.0246137012771,0.98603265442,-8.04589564418e-09,-1.20682769247e-09,-1.00000001382,0.0,0.0,0.0
2015-08-27 10:09:55.958,42.3504870402,-71.1106910774,13.07316,-1.0,0.134333811126,0.0324858169036,-0.8490987865,0.0821214464453,-0.105572960131,0.0579563725912,0.0281474887407,0.207913091192,0.227735392948,0.201869667311,0.0157624898523,-0.0934439616443,0.114005176924,0.10199263435,0.0257137612819,0.987896312704,-3.03095604171e-10,4.22441823146e-09,-0.99999999261,0.0,0.0,0.0
2015-08-27 10:09:55.990,42.3504870402,-71.1106910774,13.07316,-1.0,0.0322044339593,0.0320613381933,-0.719876897118,-0.311742698119,0.090489623118,0.188503593631,0.0316548467189,0.215470735416,0.225802956741,0.128077200491,0.0316431643413,0.14990318804,0.112922553673,0.105858513457,0.0278653590106,0.987555564901,-7.74740543941e-09,-2.3700056969e-09,-1.00000001407,0.0,0.0,0.0
2015-08-27 10:09:56.048,42.3504870402,-71.1106910774,13.07316,-1.0,-0.0195122386932,0.0408552634108,-1.02275828983,-0.12847978321,-0.115368285719,-0.0460807700685,0.037589402877,0.225757283181,0.2051661721,0.0189633846375,0.0186469763329,0.218855475402,0.102240028424,0.111538062347,0.0304884571093,0.988016544,-2.08670011825e-10,5.65758200531e-09,-1.00000001165,0.0,0.0,0.0
2015-08-27 10:09:56.121,42.3504870402,-71.1106910774,13.07316,-1.0,-0.0225837565194,0.11103988721,-0.922094550057,0.0542182285208,0.0463895309867,0.0362836239426,0.0351457839803,0.223908776162,0.195151168697,-0.0320299764183,0.0441752790516,-0.0675154778094,0.0972905165849,0.110713801975,0.0286215179478,0.988664664153,1.03356631725e-08,-7.5885008559e-09,-0.999999979584,0.0,0.0,0.0
2015-08-27 10:09:56.170,42.3504870402,-71.1106910774,13.07316,-1.0,0.053484425809,0.147911029399,-1.08574784319,-0.0534758541303,-0.23944818048,0.083112667443,0.0386707284809,0.226326496777,0.180955451423,-0.00963894919967,0.122867662147,0.0736838199714,0.0899000978954,0.112280359965,0.0298228705649,0.989152005283,5.88929803536e-09,-4.15099634526e-09,-0.999999972142,0.0,0.0,0.0
2015-08-27 10:09:56.224,42.3504870402,-71.1106910774,13.07316,-1.0,-0.0335570968014,0.15228734923,-0.988985725396,0.00659189262619,0.0578534653284,0.0868977044899,0.0433048227768,0.221014907357,0.166398702144,0.0207834055544,0.153802307709,-0.0847013106129,0.0822129781194,0.110078289664,0.0311985095195,0.990025479156,-1.82052525832e-10,2.40092232293e-09,-1.00000001759,0.0,0.0,0.0
2015-08-27 10:09:56.281,42.3504870402,-71.1106910774,13.07316,-1.0,-0.0327956378398,0.0700174696193,-1.10845210579,0.0635214100964,-0.152676345589,0.0918707449956,0.0472186145708,0.218694555539,0.150521469621,-0.0354792045083,0.121002078871,-0.00441737976794,0.0739224660289,0.109243021089,0.0322705228358,0.990737121902,4.74505851278e-10,-5.12637311073e-09,-1.0000000063,0.0,0.0,0.0
2015-08-27 10:09:56.366,42.3504870402,-71.1106910774,13.07316,-1.0,0.0447604309951,0.0201744991731,-0.91478533125,0.150562110377,-0.00975019312923,0.171566926058,0.0504950968912,0.21619732713,0.154448067331,-0.0303491390006,0.0744030173629,-0.108236072307,0.0757230858737,0.108097877695,0.0340526867505,0.990667087184,-5.5276981048e-09,4.31196540886e-09,-1.00000001321,0.0,0.0,0.0
2015-08-27 10:09:56.398,42.3504870402,-71.1106910774,13.07316,-1.0,0.058448865268,-0.0285099536994,-0.910528050547,-0.143992366866,-0.108379690841,0.103481397608,0.0588011947423,0.220995218388,0.155125926848,0.0483650021762,0.0122416495628,0.0962572244248,0.0755787294397,0.110709429617,0.0385515015282,0.990224752054,-1.00417712756e-08,7.89455371474e-09,-1.00000001292,0.0,0.0,0.0
2015-08-27 10:09:56.457,42.3504870402,-71.1106910774,13.07316,-1.0,0.0290125209895,0.00437538890998,-1.09019113137,-0.16570103431,0.108679839745,-0.0649434056504,0.0634650461888,0.213820285105,0.145097787434,0.0617433143998,-0.044320403698,0.0565739712833,0.07023619115,0.107389557836,0.040102058624,0.990921886535,3.69317075533e-09,9.14461725787e-09,-1.00000001112,0.0,0.0,0.0
2015-08-27 10:09:56.530,42.3504870402,-71.1106910774,13.07316,-1.0,0.0847045530387,0.120029792745,-1.16807759301,0.0773922263988,-0.486627469725,-0.0485298086111,0.0580651433574,0.226046818748,0.131116154058,0.0092299706366,0.0241015649604,-0.0613565383127,0.0634191179894,0.11327994951,0.0370601215792,0.990844193555,2.45984921321e-09,-9.00299636317e-09,-0.999999972056,0.0,0.0,0.0
2015-08-27 10:09:56.590,42.3504870402,-71.1106910774,13.07316,-1.0,-0.0101930146896,0.18770791884,-0.90771647536,0.3614156242,0.023139050004,0.11236964219,0.0577602358393,0.211077228166,0.13392420011,0.0851637241512,0.138699006133,-0.194820004924,0.0649081709497,0.105918160965,0.0364901579811,0.991582947056,-2.95435211017e-09,-3.40746598776e-09,-0.999999990564,0.0,0.0,0.0
2015-08-27 10:09:56.631,42.3504870402,-71.1106910774,13.07316,-1.0,-0.0723901482089,0.0333259992327,-1.10207868386,-0.0572450983042,-0.409053911531,-0.0441161836382,0.0578804046974,0.211583611284,0.130001256368,-0.0326652398866,0.101843688223,0.115351919073,0.0629106956154,0.106180080092,0.0363648868699,0.99168827258,-3.28815318029e-09,-5.16492459218e-09,-0.999999995889,0.0,0.0,0.0
2015-08-27 10:09:56.690,42.3504870402,-71.1106910774,13.07316,-1.0,-0.00907265481509,0.0144647438696,-0.799149064208,0.0519887644602,0.0547910437043,-0.0454671799414,0.0593919551354,0.200742367406,0.140700789171,-0.06106038791,0.0456938022486,-0.102321228811,0.0682863031821,0.100875917465,0.0372699917497,0.991852800464,2.33262230365e-09,8.6314428209e-09,-1.00000001209,0.0,0.0,0.0
2015-08-27 10:09:56.748,42.3504870402,-71.1106910774,13.07316,-1.0,-0.0293576619274,0.00390037110487,-1.36997139211,-0.888217947315,-0.800253017159,0.104575738387,0.0537281065978,0.201900641011,0.145157000562,0.00649971911297,0.00546315532611,0.190863121351,0.0708451707395,0.101260310454,0.0346454661005,0.991729299249,-1.21572950318e-09,1.06963463325e-08,-1.0000000225,0.0,0.0,0.0
2015-08-27 10:09:56.821,42.3504870402,-71.1106910774,13.07316,-1.0,0.0619083533322,0.15649755098,-1.12370190622,0.677334910299,0.45303558911,-0.453953905399,0.057382042549,0.176276245895,0.102170883037,0.0265091966661,-0.00157581641589,-0.30449445946,0.0490566462877,0.0887595781011,0.0335864029305,0.994277192884,-9.34328303615e-09,1.55031858878e-09,-1.00000001037,0.0,0.0,0.0
2015-08-27 10:09:56.865,42.3504870402,-71.1106910774,13.07316,-1.0,0.0285795452063,0.205138682912,-0.787001664831,0.335321040398,0.88963596295,-0.304625060009,0.025772615371,0.203077204393,0.14188057112,0.107416937732,0.204312661139,-0.0034824105557,0.0706751736873,0.100965634573,0.0202413638357,0.992169969133,1.07186779175e-08,-2.58229023364e-09,-0.999999977676,0.0,0.0,0.0
2015-08-27 10:09:56.923,42.3504870402,-71.1106910774,13.07316,-1.0,-0.104311024625,0.133673596013,-0.913083770791,-1.18275309633,-0.78084033897,0.116183919939,0.00447057940742,0.232364092225,0.144622915926,-0.0342447172801,0.182860978095,0.340485295798,0.0734828797548,0.11452185495,0.0105285432791,0.990643306593,3.72509874336e-09,-5.49207828586e-09,-0.999999997695,0.0,0.0,0.0
2015-08-27 10:09:56.985,42.3504870402,-71.1106910774,13.07316,-1.0,-0.0297853896588,0.11754382972,-1.13405257083,0.477486228129,0.115279970239,-0.0922614305375,0.0108977236379,0.160570948882,0.0919897068672,0.00525461655093,0.0988941322474,-0.162429070785,0.0459896796262,0.0800184768482,0.00918496791411,0.995689524448,5.69770705616e-09,-1.04895158163e-09,-0.9999999947,0.0,0.0,0.0
2015-08-27 10:09:57.041,42.3504870402,-71.1106910774,13.07316,-1.0,0.0256235757814,0.103869890346,-0.886875480659,0.29689350793,0.0480487285268,-0.00830535677373,0.00616936796975,0.193358656918,0.130422554428,-0.089991640339,0.125387221563,-0.0482366942691,0.0657938525092,0.095685406172,0.00934656497545,0.993190874777,8.1687812209e-09,-2.76267693986e-09,-0.9999999822,0.0,0.0,0.0
2015-08-27 10:09:57.100,42.3504870402,-71.1106910774,13.07316,-1.0,0.0803862447135,0.0143433951184,-1.00292874947,0.268939598807,-0.162519054315,-0.0217092129275,0.00604409344778,0.185420621093,0.130274867173,0.0572015142709,0.0856224583723,0.126037675445,0.065661277878,0.0917769892681,0.00901653134388,0.993571478551,-1.65922563189e-09,2.96987861257e-09,-1.00000001166,0.0,0.0,0.0
2015-08-27 10:09:57.157,42.3504870402,-71.1106910774,13.07316,-1.0,0.0385487236286,-0.0223092588714,-1.18486806212,0.578941475206,0.053945506093,0.17104101134,0.005589336851,0.185255653608,0.142051647603,0.0614009857636,0.0273264108646,-0.0287643965488,0.0716307940724,0.0915105041784,0.0092924899348,0.993181003945,7.07639752351e-10,6.76677196177e-09,-1.00000002388,0.0,0.0,0.0
2015-08-27 10:09:57.221,42.3504870402,-71.1106910774,13.07316,-1.0,0.0656405926153,-0.0657833335924,-1.04330976958,0.419467807998,0.275626239467,0.570366733239,0.0152326082594,0.194431292208,0.178854804569,0.0621467432681,-0.00920671598852,-0.171415758303,0.0898461441268,0.095783891771,0.0162037091114,0.991206616339,-2.26202377662e-09,-1.69952106078e-09,-1.00000002337,0.0,0.0,0.0
2015-08-27 10:09:57.274,42.3504870402,-71.1106910774,13.07316,-1.0,0.160365223971,-0.157363344558,-1.06319724383,0.233755473988,-0.00521344149003,0.479336412947,0.0427679276786,0.210380327606,0.204362160199,0.0725042781005,-0.0898989479976,-0.0178774805317,0.101420367398,0.104372934325,0.0323157406643,0.988825511687,-1.05771630343e-09,2.20329149543e-09,-1.00000000992,0.0,0.0,0.0
2015-08-27 10:09:57.333,42.3504870402,-71.1106910774,13.07316,-1.0,0.0370338538811,-0.094367774002,-1.0778974242,0.0798113041008,-0.231577668707,0.0290417959635,0.0566562695036,0.209508779505,0.223343657333,0.135097809142,-0.134971669162,-0.0639293766753,0.110217272063,0.104358690084,0.0403445500875,0.987589861239,1.03351437963e-08,-8.24323397475e-09,-0.9999999776,0.0,0.0,0.0
2015-08-27 10:09:57.391,42.3504870402,-71.1106910774,13.07316,-1.0,-0.0652395176005,0.0147195985481,-1.01507221608,0.451293818141,0.0894234424738,-0.333896461959,0.040316032263,0.215409373198,0.240082311481,-0.0215551536775,-0.00952529223052,-0.043767740684,0.119647644472,0.10601161844,0.0330188966777,0.986587923294,4.69530446467e-09,-9.56890218234e-09,-0.999999984285,0.0,0.0,0.0
2015-08-27 10:09:57.462,42.3504870402,-71.1106910774,13.07316,-1.0,-0.156705364604,0.0703702693721,-1.21230953051,0.435575170355,-0.165463883999,0.713745375804,0.0455362731602,0.205721134748,0.257065961854,-0.137141855437,0.0311086517552,-0.145358739411,0.127824585106,0.101352322163,0.0359023807757,0.985951115061,5.74251290963e-09,4.08978304781e-09,-1.0000000007,0.0,0.0,0.0
2015-08-27 10:09:57.508,42.3504870402,-71.1106910774,13.07316,-1.0,-0.047541601456,0.0342367859244,-1.12488059823,0.409115827633,0.159489927863,0.393163312708,0.0671587862481,0.204495035166,0.277123031497,-0.0859141875359,0.00682427590913,-0.239946556391,0.136670497616,0.101762396927,0.0479550518337,0.984208261831,3.29994218062e-09,-2.50919378591e-09,-1.00000001078,0.0,0.0,0.0
2015-08-27 10:09:57.566,42.3504870402,-71.1106910774,13.07316,-1.0,-0.0179987623174,-0.0206967569466,-0.903061777831,0.0874587181991,-0.624680716934,0.226766558648,0.0903576939096,0.208487542924,0.303060486102,-0.0122489441375,0.0351374602008,-0.00887751567974,0.148276280748,0.104779217157,0.0615141459422,0.981453753403,3.58281695978e-10,1.46663066795e-08,-1.00000002178,0.0,0.0,0.0
2015-08-27 10:09:57.625,42.3504870402,-71.1106910774,13.07316,-1.0,-0.0350050073703,-0.0655045463473,-0.725631202889,0.164238062676,-0.321815091288,0.319759029868,0.114739805223,0.174920642937,0.308485502384,0.0317621955193,-0.0721326595164,0.181723365039,0.149515888875,0.0906838792723,0.0719303894063,0.981961023714,-2.19700688198e-09,2.03242852999e-08,-1.00000002181,0.0,0.0,0.0
2015-08-27 10:09:57.683,42.3504870402,-71.1106910774,13.07316,-1.0,-0.0729649638148,0.0168331153544,-0.943192422523,0.133851608583,-0.289022114281,0.20562611397,0.135504283213,0.155313459168,0.313554576576,0.00833668529563,-0.0798662522265,0.183492965333,0.150956142184,0.0829187383207,0.0814205017954,0.981686012867,-5.69439376208e-09,-8.35161898319e-09,-1.0000000211,0.0,0.0,0.0
2015-08-27 10:09:57.741,42.3504870402,-71.1106910774,13.07316,-1.0,0.0439490850759,0.0204331412247,-1.02297555075,0.0234240526694,-0.0922274021187,0.314967201068,0.150645923634,0.153472080962,0.323038934679,-0.00249867588854,0.00277846746053,0.05517642176,0.154726919782,0.083136436208,0.0895203920678,0.980374424734,-8.42864375517e-09,7.51023851008e-09,-1.00000001162,0.0,0.0,0.0
2015-08-27 10:09:57.800,42.3504870402,-71.1106910774,13.07316,-1.0,-0.0181958251954,0.0615979689548,-0.915770527932,-0.320498898301,-0.0858478177383,0.0671429011158,0.163683237557,0.151691492017,0.308272394337,0.0236921295548,0.0752293963717,-0.0344395096446,0.14666108022,0.0829198722763,0.0954724613416,0.981070757619,6.74828687375e-09,-1.84407212209e-08,-0.999999975965,0.0,0.0,0.0
2015-08-27 10:09:57.865,42.3504870402,-71.1106910774,13.07316,-1.0,-0.151086454986,0.0405519677045,-0.896788314134,-0.638390531352,0.45492927701,-0.437910953466,0.160704033931,0.143770785548,0.291126185128,-0.0506488386724,0.0657509845123,0.129360241091,0.138569040221,0.0787715050222,0.092602567784,0.982862368559,4.40151411152e-09,7.13646052843e-09,-0.999999994869,0.0,0.0,0.0
2015-08-27 10:09:57.916,42.3504870402,-71.1106910774,13.07316,-1.0,-0.0403585313165,-0.00420159012932,-1.15274217436,-0.629443238938,0.597747071156,-0.428814950687,0.127268238885,0.174813861212,0.25310144922,-0.155615046786,0.00758522650577,0.0365936770027,0.121179644363,0.0911939420451,0.075935328661,0.985511534477,-6.4701265734e-09,2.62143951251e-09,-1.00000000831,0.0,0.0,0.0
2015-08-27 10:09:57.975,42.3504870402,-71.1106910774,13.07316,-1.0,0.215341706436,-0.176262944418,-1.1652227554,-0.884192593033,0.488934465501,0.450096411065,0.103836947028,0.216083471739,0.215134104667,-0.0561946280171,-0.0943281892228,-0.168427607887,0.103174124544,0.109751249084,0.0646337011252,0.986474656556,-7.02441632638e-10,2.94870233005e-09,-0.999999999419,0.0,0.0,0.0
2015-08-27 10:09:58.033,42.3504870402,-71.1106910774,13.07316,-1.0,0.096376323035,-0.0117624529392,-0.839419434891,-0.775522756646,0.350743475431,0.445824752338,0.120986054097,0.253583577696,0.162793856507,0.186932653713,-0.177845052768,0.0171273065967,0.0751299552417,0.128275080319,0.0724593383077,0.986230519649,4.3959992313e-09,-6.34168055742e-09,-0.999999977609,0.0,0.0,0.0
2015-08-27 10:09:58.102,42.3504870402,-71.1106910774,13.07316,-1.0,-0.0387145048528,-0.00739332505467,-0.882464458075,-0.143434875944,1.38587801493,0.212457053087,0.131212866464,0.313895955585,0.141499936221,-0.0266705225703,0.0187862084282,0.19485388037,0.0625988895808,0.157484269523,0.0793329472878,0.982337196359,5.13832826288e-09,2.70358384465e-09,-1.00000003135,0.0,0.0,0.0
2015-08-27 10:09:58.150,42.3504870402,-71.1106910774,13.07316,-1.0,-0.0306144280226,-0.00519966136172,-0.975215949497,0.10885621769,1.08735817455,0.215608962897,0.123484003198,0.367054023577,0.143945078807,-0.135755768615,-0.00718768829487,0.123005898944,0.0639734695829,0.183029853923,0.0783561571787,0.977889452032,5.81129339094e-09,1.85613383517e-09,-1.00000000642,0.0,0.0,0.0
2015-08-27 10:09:58.209,42.3504870402,-71.1106910774,13.07316,-1.0,0.144550876407,-0.0722971864223,-1.23808360606,0.256346475542,-0.41001559412,-0.0729641537415,0.120956312359,0.429596641017,0.147950021616,-0.0146196355883,-0.053005391684,-0.0635375560719,0.0660454952997,0.21293680179,0.0810240769972,0.971458187438,-8.07646910461e-09,-2.32159717839e-09,-1.00000002785,0.0,0.0,0.0
2015-08-27 10:09:58.267,42.3504870402,-71.1106910774,13.07316,-1.0,0.189428781053,0.0748506346464,-1.09339422477,0.259455291035,-0.0976337646582,0.0244376332473,0.123220588346,0.410690265461,0.157263363444,0.190321393685,-0.0225639122802,-0.283169623629,0.0707826427195,0.203863452179,0.0820328935924,0.972985156477,-2.03791779285e-08,1.36463542896e-09,-1.00000001222,0.0,0.0,0.0
2015-08-27 10:09:58.327,42.3504870402,-71.1106910774,13.07316,-1.0,0.115576172504,0.11083843918,-1.08305669638,-0.0859235671738,-0.116209880586,0.445332098138,0.146699124803,0.412753422127,0.153550308398,0.175256797648,0.0905398698184,-0.0481615563777,0.0661932207509,0.205031278011,0.0942867325642,0.971951976502,1.82417258243e-08,3.6453743392e-09,-0.999999975585,0.0,0.0,0.0
2015-08-27 10:09:58.384,42.3504870402,-71.1106910774,13.07316,-1.0,-0.0263812406495,0.0511015837004,-1.12937962999,-0.0445282296512,-0.0213983860304,0.286890447441,0.172573969767,0.411281626504,0.145463743462,0.0153752703696,0.0449203299964,-0.183467523136,0.0590785806302,0.204258624128,0.1070814277,0.971247498644,-1.35969871473e-08,2.19034795162e-09,-1.00000002146,0.0,0.0,0.0
2015-08-27 10:09:58.442,42.3504870402,-71.1106910774,13.07316,-1.0,0.00655167280257,0.0268027549678,-1.24128965942,0.330383419388,-0.375917095677,-0.0491963562829,0.178834608478,0.402624019253,0.150265015141,-0.0675264393478,0.0654244491049,-0.147799097353,0.0610677296854,0.200162568884,0.110285260007,0.97161866997,1.82881279287e-08,-2.88020076886e-09,-0.999999981244,0.0,0.0,0.0
2015-08-27 10:09:58.501,42.3504870402,-71.1106910774,13.07316,-1.0,0.0423828629635,-0.00477085908225,-0.979538567932,0.120792802733,-0.301452268444,0.0468291574623,0.17849944454,0.389416103986,0.154059607461,0.0215201425345,0.033381786084,-0.240960865848,0.0633276056919,0.193943127231,0.109587146178,0.972813617889,-4.81571840738e-09,1.04899606571e-08,-1.0000000289,0.0,0.0,0.0
2015-08-27 10:09:58.559,42.3504870402,-71.1106910774,13.07316,-1.0,-0.00486125365916,-0.0172913919953,-0.97037372159,0.166435901119,-0.294673834816,0.0098451116355,0.181889813568,0.3697769889,0.157332148066,0.0454782477863,0.00605947167003,0.0154321708434,0.0650586120145,0.184654592341,0.110354970875,0.974418718485,-4.14541781457e-09,-2.50439456673e-09,-1.00000002532,0.0,0.0,0.0
2015-08-27 10:09:58.617,42.3504870402,-71.1106910774,13.07316,-1.0,0.0135805248355,-0.00452646447641,-0.929936615329,0.158056347517,-0.31204181441,-0.0601968541717,0.184778215517,0.350688293547,0.161142184097,0.025158354575,-0.0340309230376,0.0511237984822,0.0671434206915,0.175638981902,0.110938549266,0.975876707059,9.53827089534e-09,-5.97214935491e-09,-0.999999992295,0.0,0.0,0.0
2015-08-27 10:09:58.676,42.3504870402,-71.1106910774,13.07316,-1.0,0.0403752872764,-0.0705231919362,-1.01537225728,0.0915106480654,0.032964529941,0.00803765328233,0.188273182503,0.329764330938,0.164941519583,0.0129945178843,-0.0438779496195,0.0029922741709,0.0692410936468,0.165758746602,0.111706175272,0.977369653346,-1.12338222058e-09,6.7708857375e-09,-1.00000001731,0.0,0.0,0.0
2015-08-27 10:09:58.741,42.3504870402,-71.1106910774,13.07316,-1.0,0.0426994117589,-0.0110698486035,-1.04021283799,0.0847705866981,-0.0868843176919,0.0858709727863,0.190110361309,0.32222292189,0.167221759952,-0.0298446603949,-0.00248845873448,0.0480466186349,0.0704201398225,0.162217387428,0.11235338012,0.977805318609,4.83636866666e-09,5.90331155487e-09,-0.999999985392,0.0,0.0,0.0
2015-08-27 10:09:58.792,42.3504870402,-71.1106910774,13.07316,-1.0,0.070174949896,0.00250222323209,-1.0202198892,0.02608009232,-0.0464041560695,0.185813571284,0.194133880747,0.32621861597,0.170122376549,0.0482498126561,0.00614396977867,-0.038628669764,0.0714345597508,0.164178224377,0.114931399328,0.977104594075,-8.40825056803e-09,-2.76752586473e-09,-1.00000002072,0.0,0.0,0.0
2015-08-27 10:09:58.851,42.3504870402,-71.1106910774,13.07316,-1.0,0.0575113499983,0.00912324632691,-1.03864443688,0.0289074391149,0.0161791156366,0.153147327545,0.197231247443,0.332205002766,0.17181405372,0.0643788955258,0.00382470472305,-0.0205979306946,0.0718630872429,0.16705372717,0.117073843041,0.976331124264,-1.57138474455e-09,6.92900173349e-09,-1.00000000155,0.0,0.0,0.0
2015-08-27 10:09:58.913,42.3504870402,-71.1106910774,13.07316,-1.0,0.0384782074092,-0.00399206584784,-1.0175532289,0.0374926350228,0.0139847546848,0.135202019723,0.205118681522,0.335509389723,0.172354979699,0.0579974943651,0.00893341325391,-0.0226542214746,0.0713147596013,0.168638250365,0.121419562966,0.975567852743,1.46054407457e-08,-5.43892293009e-09,-0.999999989203,0.0,0.0,0.0
2015-08-27 10:09:58.989,42.3504870402,-71.1106910774,13.07316,-1.0,0.0155338410622,-0.00160087656885,-1.03260122043,0.0157163441222,0.108327994624,-0.0104894618335,0.210072565061,0.341647995624,0.173601484093,0.016654126176,-0.00844822858613,-0.034339771602,0.0713183293367,0.171558286105,0.124513681647,0.974668042696,-3.98332314355e-09,7.97939227193e-09,-1.00000001856,0.0,0.0,0.0
2015-08-27 10:09:59.026,42.3504870402,-71.1106910774,13.07316,-1.0,0.0251401590157,-0.00313953020859,-1.0085022372,0.0639121493312,0.0998995068517,0.0513536606002,0.207865054046,0.35298772867,0.176970425643,-0.000773349195198,0.016937322734,0.000455078463566,0.0729652670473,0.176964988269,0.124476380008,0.973583634595,1.5853717783e-09,3.28414680867e-10,-1.00000002736,0.0,0.0,0.0
2015-08-27 10:09:59.085,42.3504870402,-71.1106910774,13.07316,-1.0,0.036219008481,0.0134815419154,-0.921080440967,0.0298102472057,0.105261653101,-0.0299295726114,0.206851629594,0.362614687286,0.178209621724,0.0379682288473,0.00618362762554,0.0207921945664,0.0734711546649,0.181517528339,0.124763349925,0.972670284759,-5.35246078015e-09,-1.78961776648e-09,-1.0000000094,0.0,0.0,0.0
2015-08-27 10:09:59.160,42.3504870402,-71.1106910774,13.07316,-1.0,0.00301608547644,-0.0104044648188,-0.836933681733,-0.256754273277,0.0195979978186,0.202832730856,0.208543603212,0.374692598301,0.170017849365,0.00779563028701,0.00143667301126,0.155755330688,0.0687929694991,0.18706617604,0.12577509366,0.971830437342,1.31799099412e-10,3.25360444489e-09,-0.999999998334,0.0,0.0,0.0
2015-08-27 10:09:59.201,42.3504870402,-71.1106910774,13.07316,-1.0,0.00720916939479,-0.0731686651816,-1.08982912609,-0.0736187356151,0.0241649166322,0.0172923867517,0.213829586151,0.378914208759,0.154299751683,0.0114036825174,-0.088512816344,-0.0159667061134,0.0600345526737,0.188721672599,0.127347997064,0.971886037774,2.83818180069e-09,3.71281388273e-09,-1.00000002683,0.0,0.0,0.0
2015-08-27 10:09:59.260,42.3504870402,-71.1106910774,13.07316,-1.0,0.0416910567648,0.0121895920959,-1.07461330686,0.0208135366649,0.125115940963,0.184209756875,0.21326868452,0.382592621946,0.158253328082,-0.0044182062708,-0.0630363303516,-0.129626218586,0.0620339561715,0.19053763329,0.127697149455,0.971360199207,-6.37164687678e-09,-1.36763835673e-09,-1.00000002626,0.0,0.0,0.0
2015-08-27 10:09:59.324,42.3504870402,-71.1106910774,13.07316,-1.0,0.0189195168965,0.0480516134194,-1.04270086486,-0.0349074551692,-0.0660276016474,0.128998973988,0.22015399917,0.39201725693,0.156585352742,0.0490489160654,0.0039435815645,-0.0644857883824,0.0602035309462,0.194848288576,0.131814010595,0.970069454169,-7.88480614133e-10,1.211457476e-09,-0.999999972774,0.0,0.0,0.0
2015-08-27 10:09:59.399,42.3504870402,-71.1106910774,13.07316,-1.0,0.0318500602412,0.0601876537238,-1.0755666788,0.0328850724893,-0.00184261147807,0.0678608126379,0.226872400923,0.392603872793,0.151743959866,0.0071058754325,0.04420431141,-0.0916264905961,0.0569852085333,0.194913640907,0.134883838371,0.969828700722,-2.50934853452e-09,6.17908392855e-09,-1.00000001079,0.0,0.0,0.0
2015-08-27 10:09:59.435,42.3504870402,-71.1106910774,13.07316,-1.0,0.10090604828,0.0594567208616,-0.903979097785,0.088793070529,-0.04476971943,0.0721387572469,0.228852568005,0.392272761493,0.153312020639,0.0825198557079,0.0606140432072,-0.0514204156411,0.0575991998827,0.194761858368,0.136044415492,0.969660800338,-1.09157236028e-09,-2.38205837e-09,-1.0000000168,0.0,0.0,0.0
2015-08-27 10:09:59.494,42.3504870402,-71.1106910774,13.07316,-1.0,0.0914180180647,-0.0170919002318,-0.95567831235,0.0912561055027,-0.577141049637,0.104259966977,0.239169533728,0.380773909655,0.144908299188,0.0869433334155,0.0262328699311,0.18246710411,0.0526011301934,0.188965136509,0.139742462753,0.970565475581,-1.29304594809e-09,-1.03234946529e-08,-0.999999984672,0.0,0.0,0.0
2015-08-27 10:09:59.557,42.3504870402,-71.1106910774,13.07316,-1.0,0.127498572557,-0.00504088943276,-1.07826556857,0.206042769327,-0.124097889554,0.0709910575527,0.241583695632,0.364269784179,0.155064576006,0.0852056868574,-0.0197670382768,-0.0842372421861,0.0581254938378,0.181485715848,0.140746826791,0.971532136709,-2.16635934192e-09,-1.75810477981e-09,-0.999999974115,0.0,0.0,0.0
2015-08-27 10:09:59.621,42.3504870402,-71.1106910774,13.07316,-1.0,0.171436967703,0.0555264044585,-1.11367555833,0.061126549497,-0.115917243848,0.303303502622,0.24559532304,0.365454213154,0.160062657039,0.11992578328,0.00579513044187,-0.0786075853453,0.0602403556571,0.182118656232,0.143364845475,0.970901856876,3.23825385951e-09,3.60310983827e-09,-1.00000002784,0.0,0.0,0.0
2015-08-27 10:09:59.668,42.3504870402,-71.1106910774,13.07316,-1.0,0.0171739016737,0.10217210575,-1.03562260836,0.0335265277427,-0.0290488705106,0.304797154382,0.263867016905,0.360738532854,0.161173670511,0.174832288359,0.0765725881632,-0.0872163562438,0.0592102164171,0.179638465675,0.152516011411,0.970032493366,7.50781256609e-09,-4.34207862721e-09,-0.999999976956,0.0,0.0,0.0
2015-08-27 10:09:59.727,42.3504870402,-71.1106910774,13.07316,-1.0,-0.040113595601,0.0377590906293,-0.969883020744,0.00818379185116,-0.0165575332715,0.238624694772,0.280637020262,0.361210883992,0.160242713483,-0.0187145165316,0.0793429217004,-0.0176178398865,0.0571274592172,0.179474039918,0.161065800053,0.968805104473,6.71577654598e-09,-3.48808734674e-09,-0.999999999407,0.0,0.0,0.0
2015-08-27 10:09:59.785,42.3504870402,-71.1106910774,13.07316,-1.0,-0.00868990259935,-0.00213500755331,-0.9846222591,0.0708606804982,-0.0287974837472,0.143516849795,0.289957991977,0.359815632057,0.160523265277,-0.0283121001716,0.0125091586472,0.00843518701873,0.0564536718146,0.178619327517,0.165749376259,0.968212405955,3.83173651142e-09,3.42916905982e-09,-1.00000001044,0.0,0.0,0.0
2015-08-27 10:09:59.844,42.3504870402,-71.1106910774,13.07316,-1.0,0.0772868292443,0.0237508782494,-1.01037762379,0.0138104182561,0.00439806953231,0.197317036875,0.29912155093,0.359166486354,0.162025376842,0.0531751309539,0.00982793199283,-0.0067854627842,0.0563818780391,0.178148776851,0.170511852958,0.967475997189,-6.55694243346e-09,-3.19782982386e-09,-1.00000001608,0.0,0.0,0.0
2015-08-27 10:09:59.902,42.3504870402,-71.1106910774,13.07316,-1.0,0.057063223645,0.0221612362105,-0.972628051222,-0.00671611951942,-0.0117921178189,0.206839594934,0.304989960054,0.36139044649,0.159948529706,0.0763315078667,0.021842403535,-0.0104933021111,0.0546991359214,0.178923956724,0.173490675686,0.966899791959,1.36142437879e-08,-7.3637087053e-10,-1.0000000047,0.0,0.0,0.0
2015-08-27 10:09:59.960,42.3504870402,-71.1106910774,13.07316,-1.0,0.0187187275236,0.0131171478444,-0.95758692534,0.00282552626682,0.15842790089,0.14101597187,0.314825422873,0.365501235927,0.15814014567,0.0480919608913,0.0170006252797,0.0224858622371,0.0526962811891,0.180435203924,0.17866382558,0.965787490374,4.11929768074e-09,1.07155910603e-08,-1.00000001892,0.0,0.0,0.0
2015-08-27 10:10:00.027,42.3504870402,-71.1106910774,13.07316,-1.0,0.0328988276817,0.0212102477338,-0.956252527421,-0.0676578333464,0.0555374764892,0.189534751515,0.319945253793,0.37791224842,0.156582055828,0.00755081392959,0.0130111546004,0.0588267947629,0.050839102802,0.185856439454,0.182145157534,0.964207400473,3.40509012653e-09,9.70669589845e-09,-1.00000000943,0.0,0.0,0.0
2015-08-27 10:10:00.077,42.3504870402,-71.1106910774,13.07316,-1.0,0.0411521096681,0.0244477915887,-1.03673463633,-0.0544936994707,0.162531697732,0.216881275255,0.328032663696,0.389701578207,0.151068513628,0.0307147721673,0.0234289212511,0.0104135899688,0.0467508250031,0.190658000243,0.186730584298,0.962598346245,-6.66743429911e-09,-5.43950463144e-09,-1.00000002142,0.0,0.0,0.0
2015-08-27 10:10:00.136,42.3504870402,-71.1106910774,13.07316,-1.0,0.0229513567323,0.0372618040957,-1.10636316208,0.0163169036839,0.160769057209,0.184093074453,0.333618329665,0.41129157657,0.149883672898,0.0251873688345,0.0199403288784,-0.0628977678419,0.0445477620775,0.200130842626,0.191340829305,0.959870735966,-5.9848494216e-09,-3.51004611487e-09,-0.999999988885,0.0,0.0,0.0
2015-08-27 10:10:00.194,42.3504870402,-71.1106910774,13.07316,-1.0,0.00509109602252,0.0304640509577,-1.10675936643,0.0246136924083,0.0850147776102,0.172677412821,0.34026853406,0.42449242378,0.148777519628,0.0170918601459,0.0321246270585,-0.110223039178,0.0426921068037,0.205708226373,0.195822872338,0.957869987153,4.14410714078e-09,1.21662411395e-09,-1.00000000017,0.0,0.0,0.0
2015-08-27 10:10:00.262,42.3504870402,-71.1106910774,13.07316,-1.0,-0.00123026939388,0.0167406977597,-1.04996159341,0.0237241722772,0.00985848391845,0.127758936322,0.346633234065,0.430649312657,0.147522968844,0.00355787883965,0.0238099352857,-0.0755673251664,0.041135444465,0.208088517844,0.199520576633,0.956660119086,1.23497233273e-08,-4.99828518852e-10,-1.00000001114,0.0,0.0,0.0
2015-08-27 10:10:00.311,42.3504870402,-71.1106910774,13.07316,-1.0,0.0343309840227,0.0102864494181,-1.06117844611,0.0539022132939,-0.0536264639262,0.109434611684,0.349841791839,0.431145696485,0.145932608523,0.00104952439038,0.0180408830547,-0.0441210026362,0.0400040363567,0.208064682095,0.201042989174,0.956394521965,7.62448637559e-09,8.64823603008e-09,-0.99999999617,0.0,0.0,0.0
2015-08-27 10:10:00.369,42.3504870402,-71.1106910774,13.07316,-1.0,0.0503569749614,0.0207934724248,-0.990618431923,0.0832375258409,-0.127313302444,0.133122530982,0.356925239597,0.429791153299,0.144465166348,0.0436023960766,0.010735743385,-0.0494021486447,0.0386660838169,0.207009617649,0.204384264427,0.955970200695,2.42732253741e-08,2.15398104908e-09,-0.999999981914,0.0,0.0,0.0
2015-08-27 10:10:00.428,42.3504870402,-71.1106910774,13.07316,-1.0,0.0438246006696,0.017147911072,-0.998463449352,0.0943009579352,-0.0961831515036,0.154408318748,0.365135526542,0.428693529634,0.144169263118,0.0523270242871,0.00360025967718,-0.0107751287834,0.0378073530569,0.206059570112,0.208438572509,0.95533419237,2.69190436608e-09,2.41138858881e-10,-1.0000000069,0.0,0.0,0.0
2015-08-27 10:10:00.501,42.3504870402,-71.1106910774,13.07316,-1.0,0.0214497480047,0.0149198368033,-1.01591390629,0.0565019330041,-0.0744957361398,0.202048425588,0.3752155956,0.430631277809,0.144508968223,0.0329674411248,0.00657795524529,0.00395281120713,0.0369370487066,0.206371977802,0.213787852524,0.954117925271,2.02233280122e-09,-6.32326799949e-09,-0.999999983752,0.0,0.0,0.0
2015-08-27 10:10:00.544,42.3504870402,-71.1106910774,13.07316,-1.0,-0.00937049171156,0.0329252101405,-1.04239283632,0.0781896303734,-0.00239840872712,0.182111093868,0.384222977648,0.433250027589,0.14524657188,0.00612241439244,0.017900763323,-0.0575035396089,0.0363310661592,0.207045753466,0.218691430551,0.952883081919,1.41591228187e-08,9.32273812315e-09,-0.999999978056,0.0,0.0,0.0
2015-08-27 10:10:00.603,42.3504870402,-71.1106910774,13.07316,-1.0,-0.00796406503192,0.0331898062419,-1.01497409277,0.0586734226477,-0.0666696682689,0.144388802685,0.394045734192,0.433611540587,0.142698399571,-0.00800493360624,0.0296214698582,-0.00305927538517,0.0341754238977,0.206464537141,0.2234435321,0.95198604153,-1.64977200234e-08,-7.477048522e-09,-1.00000001183,0.0,0.0,0.0
2015-08-27 10:10:00.662,42.3504870402,-71.1106910774,13.07316,-1.0,0.011503254055,0.0208612615673,-1.06225202337,0.0767839638822,0.00881739114815,0.138858310998,0.397724080385,0.431970496109,0.143497804765,-0.0116008780443,0.0355011421636,-0.0109210217138,0.0343384498896,0.205568260447,0.225226785583,0.951753884264,1.6902844846e-08,1.20743809395e-08,-0.999999980993,0.0,0.0,0.0
2015-08-27 10:10:00.720,42.3504870402,-71.1106910774,13.07316,-1.0,0.0403389764678,0.03607238385,-1.07390709956,0.0444030955871,-0.0321058692899,0.144162979025,0.40444171736,0.432476048056,0.144734654148,0.015249073358,0.0214420093009,-0.0576352537579,0.0343242066165,0.205448705377,0.22879703003,0.950928281916,8.77011102629e-10,6.64939988487e-09,-0.999999996401,0.0,0.0,0.0
2015-08-27 10:10:00.778,42.3504870402,-71.1106910774,13.07316,-1.0,0.0196586109967,0.0298939471436,-1.05679238036,0.0794014916076,-0.0253149430923,0.157887366939,0.411930489828,0.434845756321,0.143301625094,0.0368227650016,0.0345654829531,-0.0696522522415,0.0328350177015,0.205918111066,0.232663269187,0.949940733056,-1.93017976602e-09,8.24683541595e-09,-1.00000002262,0.0,0.0,0.0
2015-08-27 10:10:00.837,42.3504870402,-71.1106910774,13.07316,-1.0,-0.000603864778586,0.0288018577819,-1.01519513175,0.0682794199766,-0.00657553207993,0.149789646184,0.420797440639,0.434982489555,0.143474538495,0.0212739154688,0.0292890206663,-0.050905898761,0.0321553446388,0.205413175123,0.237159560513,0.948960907601,-2.87775506203e-09,3.3287249207e-09,-1.00000000293,0.0,0.0,0.0
2015-08-27 10:10:00.904,42.3504870402,-71.1106910774,13.07316,-1.0,0.0333365995036,0.0198991872946,-1.00157097784,0.0743328516808,-0.0388630734289,0.166411108891,0.428787603591,0.43907463342,0.139961477893,0.0149643939525,0.022618349764,0.0112724830464,0.0295336159254,0.206418888591,0.241230830396,0.94780097828,7.49321096838e-09,1.06824737181e-08,-1.00000000322,0.0,0.0,0.0
2015-08-27 10:10:00.953,42.3504870402,-71.1106910774,13.07316,-1.0,0.0322801917838,0.0171286556155,-1.01132145694,0.0690207606839,-0.0453360634435,0.188182778523,0.437806457056,0.441383982861,0.141148530752,0.0389538069664,0.0201436402045,-0.00693703988435,0.0292191345407,0.206869721226,0.246113266561,0.946456243383,1.77592254791e-09,9.58439484028e-09,-1.00000000213,0.0,0.0,0.0
2015-08-27 10:10:01.012,42.3504870402,-71.1106910774,13.07316,-1.0,0.0235926630348,0.0241926517744,-0.992675316702,0.0776647721579,-0.0231385547276,0.178125389372,0.443117243899,0.442244738203,0.140898094107,0.0290796403353,0.0202419995846,-0.00468082811412,0.0286129885319,0.206849547259,0.248837258672,0.945766662757,9.7628064244e-09,6.67302922641e-09,-0.999999986066,0.0,0.0,0.0
2015-08-27 10:10:01.070,42.3504870402,-71.1106910774,13.07316,-1.0,-0.00985240024328,0.0229571765941,-0.943310555608,0.0451451165621,-0.0459595517252,0.188092971894,0.45139342545,0.449137160022,0.138397796449,0.0154211440898,0.016810881775,0.00373845371371,0.0263088327797,0.20902375666,0.25344061654,0.944131753707,-3.21208512566e-09,-6.04284085964e-09,-1.00000001293,0.0,0.0,0.0
2015-08-27 10:10:01.142,42.3504870402,-71.1106910774,13.07316,-1.0,-0.00926420980594,0.00868989507843,-0.999030809056,0.0828751458385,-0.141579831099,0.160596547422,0.4628337043,0.44804487705,0.135154864762,-0.00488704142878,-0.00225643992519,0.0342499591321,0.0239435077655,0.207483890301,0.258712730207,0.943103847373,-1.23630632398e-08,-1.2601012192e-08,-1.00000000447,0.0,0.0,0.0
2015-08-27 10:10:01.187,42.3504870402,-71.1106910774,13.07316,-1.0,0.00274870060947,0.000840772869995,-1.02087570795,0.104712089835,-0.0435440961305,0.103081602333,0.46940275678,0.443240093049,0.138968087647,-0.00665151324425,-0.0342488247574,-0.0120999327158,0.0255753511781,0.205235256999,0.261865165989,0.942682887051,4.24124690923e-09,3.87180391914e-09,-1.00000001994,0.0,0.0,0.0
2015-08-27 10:10:01.245,42.3504870402,-71.1106910774,13.07316,-1.0,-0.0033614767345,0.0204135112124,-1.04052462737,0.0872033744273,-0.0608140434534,0.0816490249905,0.475620768829,0.439706730442,0.139876686002,0.00404520182703,0.0136059345205,-0.0178571599801,0.0257775259699,0.203349695047,0.264675499613,0.942301066849,-7.04903971305e-09,-5.17151423768e-09,-0.999999990057,0.0,0.0,0.0
2015-08-27 10:10:01.304,42.3504870402,-71.1106910774,13.07316,-1.0,0.00135232372474,0.0378314358867,-1.02695931955,0.0600883461277,-0.113502383212,0.0812787524331,0.480473368355,0.435848125127,0.138110782561,-0.00901777216999,0.0260351933786,-0.0376755381391,0.0248543694638,0.201237503056,0.266507103372,0.942263069177,-3.5582290725e-09,-9.00334624909e-09,-1.00000000144,0.0,0.0,0.0
2015-08-27 10:10:01.362,42.3504870402,-71.1106910774,13.07316,-1.0,0.0278874893895,0.0245665358925,-1.08392990318,0.089008863332,-0.0515858720607,0.064725962593,0.482799764455,0.433708226374,0.135884450279,0.00850910361615,0.0338619809129,-0.0405870773101,0.0237905847646,0.200000904041,0.267221836916,0.94235138687,5.17944853673e-11,6.26668714837e-09,-0.99999999729,0.0,0.0,0.0
2015-08-27 10:10:01.421,42.3504870402,-71.1106910774,13.07316,-1.0,0.0652922379613,0.034130423448,-1.07906921575,0.100640247077,-0.0186235253917,0.0648078339277,0.485228575454,0.434332495482,0.135752798628,0.0349119013683,0.0261145996782,-0.0887546112911,0.0235125683169,0.200073031739,0.268475957875,0.941986518558,2.10849671056e-09,-6.20307514382e-09,-0.999999996297,0.0,0.0,0.0
2015-08-27 10:10:01.479,42.3504870402,-71.1106910774,13.07316,-1.0,0.0756863876048,0.0427789580335,-1.02071635793,0.0883911668641,-0.0288726947424,0.105512057522,0.487928205419,0.436535722311,0.138128556207,0.0757377940322,0.0448076046611,-0.0482687928816,0.0242791432242,0.200972599483,0.27027101238,0.94126198124,1.66808341584e-08,2.94739430778e-09,-0.99999998064,0.0,0.0,0.0
2015-08-27 10:10:01.541,42.3504870402,-71.1106910774,13.07316,-1.0,0.0440265130367,0.055146998352,-1.00197160945,0.136996582503,0.00732750626357,0.210857803984,0.496415755537,0.439638078563,0.141233838175,0.0644387444066,0.0529190365345,-0.0296264429181,0.0249110507621,0.201860466346,0.275092318491,0.939657388618,1.93453242592e-08,4.01987651499e-09,-0.999999991231,0.0,0.0,0.0
2015-08-27 10:10:01.596,42.3504870402,-71.1106910774,13.07316,-1.0,0.0401437105149,0.0697847189112,-1.00633625267,0.0966066657348,-0.0991156293178,0.273710225076,0.510423815377,0.439824370957,0.143567533854,0.0351868622923,0.065943583374,0.0136088928709,0.0250043027822,0.201041322313,0.282236223885,0.937709915428,-4.82296480531e-10,2.15122235997e-09,-0.999999986691,0.0,0.0,0.0
2015-08-27 10:10:01.654,42.3504870402,-71.1106910774,13.07316,-1.0,-0.0123923716604,0.0646169032447,-0.984764697076,-0.0911126735382,-0.0995323664698,0.428412778343,0.530054997197,0.445938204753,0.135476403277,0.0043160384339,0.0540655435976,0.00621453070468,0.0195405427142,0.201378584868,0.291746294931,0.934852358472,-1.85437726286e-08,-4.69363754807e-09,-1.00000001032,0.0,0.0,0.0
2015-08-27 10:10:01.713,42.3504870402,-71.1106910774,13.07316,-1.0,-0.0332262793014,0.0460795963878,-1.00824335668,0.14712272591,-0.349728949944,0.464618471055,0.544526381841,0.444340801567,0.127668081284,-0.00990149974503,0.0557797946256,0.0186991284614,0.0152080789927,0.198915508009,0.297911719659,0.933514832392,1.05219537805e-08,4.6873975465e-09,-0.999999978788,0.0,0.0,0.0
2015-08-27 10:10:01.784,42.3504870402,-71.1106910774,13.07316,-1.0,0.0133669740212,0.0282006171934,-1.03358003514,0.271887217025,-0.153210158079,0.671345441229,0.578847538652,0.430705408771,0.12176535282,-0.0176947903155,0.0319337256251,-0.027733112921,0.0117164622308,0.190093421062,0.312610609157,0.930592189321,-2.28473329145e-09,-1.03308425009e-09,-0.999999977891,0.0,0.0,0.0
2015-08-27 10:10:01.829,42.3504870402,-71.1106910774,13.07316,-1.0,0.0702621204934,0.0694276024118,-1.01548192358,0.329158314146,-0.172313645904,0.789745170421,0.623830178044,0.42175386734,0.127738185145,0.062140447318,0.0565466590839,-0.0417920345691,0.0128982551948,0.183396203102,0.333795379366,0.924543191211,-1.07578543296e-09,-2.90512601475e-09,-0.999999977723,0.0,0.0,0.0
2015-08-27 10:10:01.887,42.3502635566,-71.1103438418,13.62407,-1.0,0.0576025109536,0.0645858656448,-1.03733400806,0.305879380923,-0.387683073084,0.837693910637,0.683374502891,0.40210480435,0.131089153506,0.0785038571204,0.100031333795,0.0102327609471,0.0135287565444,0.171337729844,0.360198168134,0.916906557262,-1.99467331541e-10,1.11809052294e-09,-1.00000000048,0.0,0.0,0.0
2015-08-27 10:10:01.946,42.3502635566,-71.1103438418,13.62407,-1.0,0.0460336098103,-0.116990289405,-1.13185275036,-0.060501587656,0.0348323403452,0.353883327892,0.72420351227,0.39420992233,0.12427618639,0.044489456661,0.0036179695545,-0.0955806117997,0.0100640228121,0.164544593643,0.37795243993,0.91103004632,-1.134086558e-08,-1.0677179002e-08,-1.00000000888,0.0,0.0,0.0
2015-08-27 10:10:02.007,42.3502635566,-71.1103438418,13.62407,-1.0,0.0663786389296,-0.180294754682,-1.12100038042,-0.0585693513732,0.161881243852,-0.217151816944,0.726842185299,0.403426012081,0.122640069702,0.0411308968578,-0.121742244693,-0.13154033789,0.00854605790089,0.167630234013,0.379979236689,0.909638856484,9.06097641362e-09,1.87489954118e-09,-0.999999982962,0.0,0.0,0.0
2015-08-27 10:10:02.064,42.3502635566,-71.1103438418,13.62407,-1.0,-0.0924140639216,-0.0843532147724,-1.04330647972,0.0670098617372,0.0368410985017,-0.219412527884,0.712000926407,0.413626882034,0.126493816539,-0.114008267979,-0.0963349400252,-0.0713555537839,0.00970927431216,0.172993190134,0.374405850215,0.910933227786,7.94852164643e-09,-1.74021395905e-09,-0.999999984259,0.0,0.0,0.0
2015-08-27 10:10:02.122,42.3502635566,-71.1103438418,13.62407,-1.0,-0.0724024140775,-0.0358425067399,-1.02005244442,0.129464564981,-0.0921900740444,-0.186076113817,0.697220680546,0.412036996871,0.132087803134,-0.107192014704,-0.0844384415944,-0.0145493809894,0.0126301545891,0.174101285708,0.36777201648,0.913385441861,8.5915095871e-09,1.12701572658e-08,-0.999999982981,0.0,0.0,0.0
2015-08-27 10:10:02.198,42.3502635566,-71.1103438418,13.62407,-1.0,-0.0045037624671,0.0512000832445,-1.04595076247,0.111848416414,-0.116201795971,-0.14894545249,0.68812699808,0.40089567654,0.135146807359,-0.0432924849931,-0.00957632978828,-0.0197701332955,0.0151421263965,0.170874445429,0.362610016888,0.916016711398,-2.97445629238e-09,4.14397682835e-12,-1.00000002134,0.0,0.0,0.0
2015-08-27 10:10:02.238,42.3502635566,-71.1103438418,13.62407,-1.0,0.0459063877419,0.110092367089,-1.00392568166,0.138090559126,0.0431489041419,0.115326615702,0.68680004062,0.395569236724,0.141655030058,-0.00319997410051,0.0953495582422,-0.0443975320272,0.0183341831577,0.16953777847,0.361943506473,0.916470238208,4.64346816553e-09,1.10351058707e-08,-1.00000000639,0.0,0.0,0.0
2015-08-27 10:10:02.297,42.3502635566,-71.1103438418,13.62407,-1.0,0.0510546242811,0.0818397714643,-0.954699481296,0.0560451534475,0.0343958079583,0.272616616451,0.698145186111,0.4018837115,0.144217658749,0.0490497768999,0.0978276888615,0.0349203423425,0.0184437930718,0.171287266015,0.36807765211,0.913695431211,2.73491515546e-09,1.0234922479e-08,-0.999999989165,0.0,0.0,0.0
2015-08-27 10:10:02.363,42.3502635566,-71.1103438418,13.62407,-1.0,0.0403582291177,0.00334686177804,-0.975780713382,-0.0798702157538,0.118539513574,0.277670520593,0.712676933069,0.414744966992,0.140394217735,0.0375997994206,0.0363628997936,0.047235644014,0.0152941519423,0.174627301264,0.375885840536,0.909934739118,-8.38861433095e-09,-6.16420317567e-10,-0.999999990725,0.0,0.0,0.0
2015-08-27 10:10:02.441,42.3502635566,-71.1103438418,13.62407,-1.0,0.0297775566601,-0.0243411715783,-0.970779457516,0.000771455511386,0.181197687442,0.209144564964,0.718260148599,0.425145195891,0.138848579949,0.0286934967652,0.00438323249301,0.0123875179406,0.0136276707316,0.177915488114,0.379466437389,0.907835661656,4.05068431575e-09,5.03693792231e-09,-0.99999999215,0.0,0.0,0.0
2015-08-27 10:10:02.472,42.3502635566,-71.1103438418,13.62407,-1.0,-0.0256965108354,-0.0380487064919,-0.982253706264,-0.019373456513,0.0979261684497,0.143840562889,0.726136641166,0.44087683887,0.14220170091,0.00912683426059,-0.029063662705,0.0298481081516,0.0134848321053,0.183391906237,0.385097421849,0.904370247031,-8.16629044942e-09,-3.60831194091e-09,-1.00000000027,0.0,0.0,0.0
2015-08-27 10:10:02.531,42.3502635566,-71.1103438418,13.62407,-1.0,-0.0558215492312,-0.0192692491779,-1.00479732592,0.0397893408541,0.13628743103,0.100697136837,0.730990402755,0.451311791574,0.143194532582,-0.0694575481847,-0.0453955551037,0.0192144373904,0.0129170341774,0.186907609683,0.38859499775,0.902159976609,-2.09564440801e-09,-5.17061835015e-09,-1.00000001964,0.0,0.0,0.0
2015-08-27 10:10:02.592,42.3502635566,-71.1103438418,13.62407,-1.0,-0.0292549134291,0.0259586747803,-1.01793978252,0.00477021368254,0.0497962395108,0.0203027579708,0.735277279041,0.45101520806,0.140063659178,-0.0462722061933,-0.00253834337789,-0.0162848767065,0.0115252804997,0.186141132688,0.39029260367,0.90160430908,5.40809882987e-09,-5.73639592771e-09,-0.999999972823,0.0,0.0,0.0
2015-08-27 10:10:02.662,42.3502635566,-71.1103438418,13.62407,-1.0,-0.0387563557746,0.0118666350333,-1.0350917724,-0.075744585844,-0.0382822002779,-0.00614007599219,0.734430563141,0.450499454517,0.131287658617,-0.0334626877347,0.0287745987028,-0.032369474487,0.00801622614483,0.185233369031,0.389159697619,0.902318718007,3.08251169034e-09,-1.19179106861e-09,-0.999999986598,0.0,0.0,0.0
2015-08-27 10:10:02.705,42.3502635566,-71.1103438418,13.62407,-1.0,-0.0301772082463,-0.0144376090681,-1.0832807306,0.203804004792,-0.129307773294,0.0455236675454,0.734885592548,0.448787214136,0.126798231018,-0.033643639533,-0.0104432675967,-0.0173056812828,0.00630969616375,0.18415392667,0.38883111586,0.902694789154,-9.2618482328e-10,1.03695578513e-08,-1.00000001482,0.0,0.0,0.0
2015-08-27 10:10:02.764,42.3502635566,-71.1103438418,13.62407,-1.0,0.0392629389778,0.00893229370799,-1.03688815751,0.384219942897,-0.200372174907,0.00294267887151,0.739444086701,0.43767890877,0.1299796986,-0.0119056792973,0.000369282169768,-0.0845190679203,0.00835379027984,0.179963137852,0.38995171105,0.903039947207,-5.44866859964e-09,-3.59688721863e-09,-0.999999996684,0.0,0.0,0.0
2015-08-27 10:10:02.822,42.3502635566,-71.1103438418,13.62407,-1.0,0.0542447542344,0.0282982611876,-0.958000746263,0.0258984444188,0.208201605554,0.349881097759,0.747460054666,0.414015678898,0.139792648422,0.0528648515439,0.0296295416209,-0.0291942911267,0.0139929705281,0.171487290291,0.391834826415,0.903804057776,-6.43922010157e-09,-1.32185249829e-08,-1.00000000487,0.0,0.0,0.0
2015-08-27 10:10:02.881,42.3502635566,-71.1103438418,13.62407,-1.0,0.0681425579275,0.0722093340456,-0.963443128495,0.014123864908,0.15252048284,0.402260014247,0.761220818509,0.431299187988,0.144445254189,0.0469394918288,0.0425644473419,0.0620372421264,0.0140597983319,0.177097404718,0.400340228705,0.898980829937,4.2985562887e-09,9.70340026385e-09,-1.00000000835,0.0,0.0,0.0
2015-08-27 10:10:02.939,42.3502635566,-71.1103438418,13.62407,-1.0,0.0117926192862,0.0497808731242,-0.989826239074,-0.0216666323361,0.0484363262778,0.439941735741,0.782421192095,0.447916420383,0.141297431911,0.0542816879604,0.066590162523,0.0408959462609,0.010925282395,0.181002504674,0.4116177503,0.893134681414,-7.76244030165e-09,6.61126650647e-09,-1.00000001651,0.0,0.0,0.0
2015-08-27 10:10:02.998,42.3502635566,-71.1103438418,13.62407,-1.0,-0.0222608030948,0.0288910104169,-1.01771955678,0.188203990614,-0.337419624978,0.262293160798,0.806344649434,0.443878870427,0.129785684187,-0.0400632366813,0.0281271259683,-0.0398473739774,0.00617586416914,0.176449408706,0.421188988887,0.889621998665,5.51748635669e-09,-6.14251580155e-09,-0.999999982562,0.0,0.0,0.0
2015-08-27 10:10:03.063,42.3502635566,-71.1103438418,13.62407,-1.0,-0.0377475659714,0.0126317657292,-1.07096497676,0.226743526636,-0.0559750560994,0.00434082376356,0.818760812757,0.416556769858,0.126907346343,-0.0828306510699,0.0183128564888,-0.0768950926146,0.0070088245212,0.165456413125,0.423687895194,0.890541194556,1.84030739536e-08,8.76229183655e-09,-0.999999979395,0.0,0.0,0.0
2015-08-27 10:10:03.115,42.3502635566,-71.1103438418,13.62407,-1.0,-0.0487503899647,2.94478771138e-05,-1.1149595802,0.0775990290607,-0.00825225919804,-0.146973208303,0.820453576801,0.406759758782,0.1268537682,-0.0269069412086,0.0120575409408,-0.0843700388548,0.00776069609006,0.161838951477,0.423446717987,0.891314087405,-1.6130387831e-08,-5.44763008314e-09,-1.00000002274,0.0,0.0,0.0
2015-08-27 10:10:03.173,42.3502635566,-71.1103438418,13.62407,-1.0,-0.0268490405854,-0.00584470923223,-1.061420036,0.0400055164962,0.0570059554785,0.0292011241094,0.81295825617,0.398788858691,0.12992610236,-0.0359872152202,-0.0127763482857,-0.104991488072,0.00974853869544,0.159871228881,0.419459116399,0.89353243133,-3.26795004946e-09,-2.37035882589e-09,-1.00000000864,0.0,0.0,0.0
2015-08-27 10:10:03.231,42.3502635566,-71.1103438418,13.62407,-1.0,0.0258513404193,-0.00119078287378,-0.97979734991,-0.125713657298,0.223848429136,0.209521425189,0.812179058353,0.406882801958,0.131293340491,-0.0207098341154,0.00372088108382,-0.0393217201923,0.00962142411752,0.162946692438,0.420011690459,0.892718311395,3.66677108121e-09,5.16244029469e-09,-0.999999993977,0.0,0.0,0.0
2015-08-27 10:10:03.302,42.3502635566,-71.1103438418,13.62407,-1.0,-0.0634500210932,-0.0373665845937,-0.922459870026,-0.185084680882,0.279307893128,0.177013518821,0.815525231383,0.432979475973,0.130116165038,-0.034686669434,-0.022282658549,0.03091292428,0.00698679623324,0.171838679866,0.424173622269,0.889100326708,-8.02992977667e-10,-1.23345231251e-09,-1.00000000501,0.0,0.0,0.0
2015-08-27 10:10:03.348,42.3502635566,-71.1103438418,13.62407,-1.0,-0.0169468980342,-0.00325228599833,-0.980833328513,-0.0662649084264,0.232366465867,0.152219432206,0.817896468009,0.455841577371,0.128500864631,-0.0335878849234,-0.0282842397671,0.0374673621968,0.00452883692886,0.179558486142,0.427645155932,0.885922039628,-8.34809973926e-09,-8.14478781641e-09,-0.999999998567,0.0,0.0,0.0
2015-08-27 10:10:03.407,42.3502635566,-71.1103438418,13.62407,-1.0,0.00810752086459,0.00836972437743,-0.94201478608,-0.0591762416626,0.377240892079,0.159062822269,0.819235612429,0.480252000118,0.131874538251,-0.00693454510252,0.00628457890298,0.0311515280273,0.00398073459566,0.188307906099,0.431305151484,0.882326556642,-1.31929352443e-08,-4.78054233699e-09,-1.00000002167,0.0,0.0,0.0
2015-08-27 10:10:03.465,42.3502635566,-71.1103438418,13.62407,-1.0,-0.0196414282912,0.0149208161441,-0.877651840433,-0.0604084871263,0.0564646014177,0.237625717494,0.82134455004,0.503469390694,0.133259011232,-0.00401820715478,0.0215119217784,0.0854214979836,0.00281469564582,0.196325489866,0.435165003473,0.878680715203,1.95651797541e-09,-6.82451350986e-09,-0.999999981941,0.0,0.0,0.0
2015-08-27 10:10:03.523,42.3502635566,-71.1103438418,13.62407,-1.0,0.00110809714059,-0.00973542729765,-0.917492086545,0.127405812305,0.0438859926661,0.140918981307,0.826110821181,0.50880039456,0.131103786132,-0.0185592473725,0.00335089884705,0.130558063409,0.00152097390905,0.197522603054,0.437803723764,0.877103418862,6.48444056783e-09,1.01322807644e-08,-0.999999990403,0.0,0.0,0.0
2015-08-27 10:10:03.582,42.3502635566,-71.1103438418,13.62407,-1.0,0.00315436117791,0.00796628438306,-1.0225329629,0.071259612395,0.0804871350256,0.187309777676,0.833744712579,0.51168608883,0.135140716095,0.0067758012112,-0.00959672985626,-0.00618721052002,0.00276633548405,0.198137348372,0.441875350689,0.874917203523,-2.98362701212e-09,3.95218544003e-09,-1.00000002471,0.0,0.0,0.0
2015-08-27 10:10:03.640,42.3502635566,-71.1103438418,13.62407,-1.0,-0.00274326868891,0.035971382397,-1.04375953764,-0.0161879417205,0.154362751333,0.211755668961,0.841775984552,0.519559462021,0.13851045634,0.00326096973211,0.014029358669,-0.0123166292628,0.00340802711628,0.200353127204,0.446695137505,0.871957833786,8.52775461357e-10,-1.0383303814e-08,-0.999999984131,0.0,0.0,0.0
2015-08-27 10:10:03.702,42.3502635566,-71.1103438418,13.62407,-1.0,-0.055719222187,-0.00353308101734,-1.16468479234,0.0208315242823,0.0389960897075,0.236042446686,0.852214259952,0.528830704029,0.136825428769,-0.0251781181342,0.0136388936811,-0.119316985696,0.00198702816774,0.20233664087,0.45238832491,0.86856245542,7.59183935162e-09,2.16126089247e-09,-0.999999992225,0.0,0.0,0.0
2015-08-27 10:10:03.757,42.3502635566,-71.1103438418,13.62407,-1.0,-0.0657083439743,-0.00894716166707,-1.18716181919,0.0386880096683,0.0862728907848,0.167613832732,0.862084752539,0.537798488371,0.13499535906,-0.0671418294918,-0.0167259824531,-0.164536723577,0.000574390326135,0.204227972268,0.457778549369,0.865291514552,-6.31739660584e-10,-9.41275346555e-09,-1.00000000072,0.0,0.0,0.0
2015-08-27 10:10:03.815,42.3502635566,-71.1103438418,13.62407,-1.0,-0.0565739745927,-0.000802360498578,-1.09015573683,0.0673296198761,-0.0194250328347,0.109184314372,0.869069966716,0.540512863857,0.135644244251,-0.0596158930067,0.00873186378769,-0.112098458797,0.000567207633289,0.204496290104,0.461255516622,0.863379577008,5.16810672035e-09,8.53838090509e-09,-0.999999978822,0.0,0.0,0.0
2015-08-27 10:10:03.874,42.3502635566,-71.1103438418,13.62407,-1.0,-0.0441561180486,-0.00204957908973,-0.955243526672,-0.0256365571853,0.105905526,0.100384182693,0.871751327308,0.54101908826,0.133472327392,-0.0576354753229,-0.00355499601637,-0.0686653719929,-0.000322366980386,0.204208347435,0.462344077825,0.862865459163,1.09013027494e-08,1.93247979424e-08,-0.99999997602,0.0,0.0,0.0
2015-08-27 10:10:03.945,42.3502635566,-71.1103438418,13.62407,-1.0,-0.0153858790626,-0.0133909827088,-0.90506769463,0.0151714938488,0.133522126965,0.0888871873585,0.873784651495,0.548610143956,0.130570186653,-0.0387294363269,-0.00917276305705,0.0762219961065,-0.00192460707978,0.206295528178,0.464027227521,0.861462235423,1.07190638865e-08,8.62728243012e-09,-0.999999980162,0.0,0.0,0.0
2015-08-27 10:10:03.991,42.3501160881,-71.1103524082,4.26318,11.25,0.00239861429623,-0.00642703277433,-0.984848804207,0.0544335461227,0.164405268031,0.0852073915958,0.872963644896,0.560816338998,0.135624027231,-0.0142542503472,-0.0158978853885,0.0831437993856,-0.000735224058586,0.210895766975,0.465666225615,0.859463437988,-1.04288560565e-08,1.00859559593e-09,-1.00000002441,0.0,0.0,0.0
2015-08-27 10:10:04.049,42.3501160881,-71.1103524082,4.26318,11.25,-0.0176316239521,0.0449910875337,-1.01504534741,0.0409520326411,0.10934478443,0.146676653078,0.87435797622,0.570874528938,0.143330015003,-0.0136829403444,0.0148735264134,-0.0292011324898,0.00160096029112,0.214754477135,0.468217298653,0.857117560618,-3.1663160982e-10,2.98396524157e-09,-1.00000000977,0.0,0.0,0.0
2015-08-27 10:10:04.107,42.3501160881,-71.1103524082,4.26318,11.25,-0.0558629301568,0.0220963605138,-0.962238561691,-0.100182904511,0.12697485843,0.241921942229,0.880100050511,0.588287978605,0.137344682519,-0.0380063481199,0.0617810130416,0.0560218482713,-0.00172868721839,0.219404702527,0.472711356023,0.853465032697,9.12698788769e-09,8.24826222601e-09,-0.999999987899,0.0,0.0,0.0
2015-08-27 10:10:04.166,42.3501160881,-71.1103524082,4.26318,11.25,-0.0422415785439,-0.0409636157784,-1.08990845911,-0.117638457257,0.197016465572,0.172526908538,0.88176486969,0.599821601273,0.134896738772,-0.0610599229572,0.0169501792076,0.0379727953729,-0.00330159772807,0.22281836316,0.47489888879,0.851358985339,5.0903595783e-09,2.520016959e-09,-1.00000000089,0.0,0.0,0.0
2015-08-27 10:10:04.224,42.3501160881,-71.1103524082,4.26318,11.25,-0.00409484772605,-0.00647239027348,-1.09315322406,-0.0533968508325,0.106374032668,0.188051789121,0.883678216584,0.620167241903,0.130815517627,-0.0581776381288,-0.0285740091607,-0.0930929008038,-0.00592020362328,0.228936701364,0.47839483129,0.847756641586,-3.50583667652e-09,-1.79353489005e-09,-1.00000002314,0.0,0.0,0.0
2015-08-27 10:10:04.283,42.3501160881,-71.1103524082,4.26318,11.25,-0.0244093854493,-0.0208544684254,-1.12758151182,0.023698250268,0.0159111581235,0.179963941795,0.888678373689,0.634622895336,0.127850719522,-0.0149257426673,0.016419475219,-0.0800081935428,-0.00777815280214,0.232834960116,0.482500456504,0.84434630997,6.84432335807e-09,8.34451636955e-09,-0.999999997207,0.0,0.0,0.0
2015-08-27 10:10:04.344,42.3501160881,-71.1103524082,4.26318,11.25,-0.0324164954369,0.00642897375909,-1.09824804983,0.00258719303125,0.0210330112394,0.18602624754,0.89755396439,0.640083967886,0.122744519633,-0.0236731317889,-0.00511178627497,-0.113350059124,-0.0100081637407,0.233163624638,0.486781011538,0.841771232349,4.91376592193e-09,1.33840506594e-08,-0.999999997469,0.0,0.0,0.0
2015-08-27 10:10:04.398,42.3501160881,-71.1103524082,4.26318,11.25,-0.0541933917471,-0.019206795621,-1.13550555752,0.0206230287141,-0.0611964096695,0.191978142977,0.906596075386,0.645379871028,0.116459833562,-0.0377484258285,-0.00980395532734,-0.131050792476,-0.0126390900532,0.233310756722,0.491020268344,0.83922907497,-7.42094719008e-10,-4.34852198694e-09,-1.0000000059,0.0,0.0,0.0
2015-08-27 10:10:04.457,42.3501160881,-71.1103524082,4.26318,11.25,-0.0446973850814,-0.0144127060659,-1.0939257785,0.0509174954822,0.0254417658228,0.139874673869,0.915698917683,0.649243523332,0.109459711802,-0.0520126572258,-0.025567572953,-0.134408594378,-0.0154332313137,0.232921908516,0.49501684484,0.836939378467,6.79764211586e-09,3.157587386e-10,-0.999999992676,0.0,0.0,0.0
2015-08-27 10:10:04.516,42.3501160881,-71.1103524082,4.26318,11.25,-0.0413913718697,-0.0158089468479,-1.05748708404,0.0755279634411,-0.00037523571506,0.0951459206776,0.919626282523,0.647409400841,0.109064520406,-0.0429560877855,-0.0127934820616,-0.0940156715324,-0.0154862325013,0.231853271243,0.496395865824,0.836418185843,-6.22811691109e-10,-1.28584937559e-08,-1.00000000611,0.0,0.0,0.0
2015-08-27 10:10:04.587,42.3501160881,-71.1103524082,4.26318,11.25,-0.026025746454,-0.0113905944493,-0.98817721602,0.0510336651103,-0.140291214767,0.120684803632,0.928254991965,0.642298115927,0.105315825516,-0.0379359733565,-0.0242983323364,-0.0533911281926,-0.0166176102951,0.228927534243,0.499063759833,0.835614386374,-6.57423251949e-09,-6.75949610174e-09,-1.00000002094,0.0,0.0,0.0
2015-08-27 10:10:04.633,42.3501160881,-71.1103524082,4.26318,11.25,-0.025247788548,-0.0137787044815,-1.0025624989,0.171940529277,-0.074367301765,0.144357851415,0.939445133263,0.633705945095,0.096268939591,-0.0300607701732,-0.00951879038974,0.0174547572963,-0.0194979019479,0.224173580782,0.501970167779,0.835099986923,2.47561451894e-09,7.75248920615e-09,-0.99999999336,0.0,0.0,0.0
2015-08-27 10:10:04.691,42.3501160881,-71.1103524082,4.26318,11.25,-0.0358346762936,0.00668809530244,-0.979469809981,0.154745085504,-0.0267986980119,0.131960071148,0.952743205999,0.621738469572,0.0941168906517,-0.0136882558771,-0.0154590246512,-0.00229071900409,-0.0195933428716,0.218736541085,0.505780545885,0.834240052931,-2.14364428985e-09,-1.31083946475e-09,-0.999999995124,0.0,0.0,0.0
2015-08-27 10:10:04.749,42.3501160881,-71.1103524082,4.26318,11.25,-0.025513853172,-0.0254520010918,-0.924597302484,0.0765496122138,-0.0512434106522,0.128577379774,0.964464119672,0.611501226902,0.092527476185,-0.0372091558908,-0.0041220289217,0.0425986431872,-0.0195434739407,0.214108343662,0.509227059406,0.83334474965,-1.22933173641e-08,-6.17267528757e-09,-1.00000000322,0.0,0.0,0.0
2015-08-27 10:10:04.826,42.3501160881,-71.1103524082,4.26318,11.25,-0.0592490356833,-0.0375883416179,-0.994891692561,0.103209230976,0.0105019058734,0.0979746949188,0.974611461102,0.603499275299,0.0908088160613,-0.043243122939,-0.0425323725387,0.0174595006072,-0.0196427563708,0.210373697444,0.512324594865,0.83239448523,-1.08659184428e-09,-7.85212003751e-09,-1.00000000887,0.0,0.0,0.0
2015-08-27 10:10:04.866,42.3501160881,-71.1103524082,4.26318,11.25,-0.0635131619436,-0.0195608329509,-0.987532135394,0.0888492521163,0.109532994008,0.0536629241318,0.980638197275,0.597126028529,0.098186691771,-0.0606597652243,-0.0282991999604,-0.0284964214111,-0.0165967228807,0.208371640037,0.514454657822,0.831650295174,6.8084130278e-09,7.25104873367e-09,-0.999999990028,0.0,0.0,0.0
2015-08-27 10:10:04.925,42.3501160881,-71.1103524082,4.26318,11.25,-0.0229119423249,-0.0373049278063,-1.00712082467,0.0349145162403,0.0163021959658,0.0492731211994,0.982456750251,0.59827000033,0.0972880481262,-0.0585871327193,-0.0140111685696,0.0370960009911,-0.0169588952664,0.208471074728,0.515324341076,0.831079436858,-1.14277282082e-10,6.34287640466e-09,-1.00000002449,0.0,0.0,0.0
2015-08-27 10:10:04.985,42.3500452191,-71.1104027834,3.215359,10.68,-0.0328880777977,-0.0272652051765,-1.07741441661,-0.0432674630295,0.128942824259,0.0603621191041,0.986269589772,0.595794295681,0.0966924913836,-0.0187292192705,-0.0284078930276,-0.0432898335569,-0.0170017246515,0.207253118048,0.516563887459,0.830613530224,-1.31111838886e-08,-4.28207456993e-09,-1.00000002049,0.0,0.0,0.0
2015-08-27 10:10:05.041,42.3500452191,-71.1104027834,3.215359,10.68,-0.0290347319237,-0.00317607180944,-1.0588993495,-0.130117592113,0.144328237099,0.137323450184,0.98452080215,0.605630697012,0.0980696706651,-0.0392586138545,-0.0197864091739,-0.0492606489863,-0.0170325175927,0.210643437685,0.51724680877,0.829334054722,1.07922287496e-08,4.78531407555e-09,-0.999999978084,0.0,0.0,0.0
2015-08-27 10:10:05.100,42.3500452191,-71.1104027834,3.215359,10.68,-0.0649147853549,-0.0400395623887,-1.07567814012,-0.0471463846393,-0.0123819845411,0.150346123224,0.984751800769,0.620734567186,0.0915491877232,-0.0419665016752,-0.0243840517861,-0.052525320644,-0.0201081973427,0.214811698801,0.519045430107,0.827069184496,-1.4112724378e-08,-5.16162736164e-09,-1.00000001361,0.0,0.0,0.0
2015-08-27 10:10:05.158,42.3500452191,-71.1104027834,3.215359,10.68,-0.0195905827843,-0.0377832473673,-1.02532566146,0.0379966602663,-0.00589646408798,0.114207073445,0.996220889143,0.611924758077,0.0872703823979,-0.0258925057114,-0.0486377686411,-0.0700427661537,-0.0210482520428,0.21050430703,0.522395777505,0.826043315724,1.35155484304e-08,4.12774610326e-09,-0.999999986196,0.0,0.0,0.0
2015-08-27 10:10:05.229,42.3500452191,-71.1104027834,3.215359,10.68,-0.0146400523302,-0.0558332424235,-0.98025642279,0.0181430022779,-0.00626780667723,0.108599599239,1.00586560501,0.60423176462,0.0871502130162,-0.0129393361827,-0.0501459298435,-0.000779012487062,-0.0205654859326,0.207112139374,0.525390573952,0.825012949786,1.87860041412e-09,3.42714072399e-09,-0.999999972351,0.0,0.0,0.0
2015-08-27 10:10:05.275,42.3500452191,-71.1104027834,3.215359,10.68,-0.0239504606748,-0.0893307286876,-1.01603159881,0.0482185490428,0.0700478583415,0.0637504139524,1.00932296805,0.602942909134,0.0862702376153,-0.0135512197829,-0.0650312678448,0.0134596531969,-0.0207584075911,0.206288838184,0.52661586093,0.824432980158,1.65293647103e-08,1.13754908826e-08,-0.999999988537,0.0,0.0,0.0
2015-08-27 10:10:05.333,42.3500452191,-71.1104027834,3.215359,10.68,-0.0417826966837,-0.0822489726408,-0.97883058303,-0.0547014472141,0.0746317141466,0.0482537934329,1.01191550432,0.603958300181,0.0906821170354,-0.0295841172784,-0.0843348938436,-0.0180672503039,-0.0192165590889,0.206715292515,0.528086984875,0.823421913786,-6.46762385315e-09,-1.67755516423e-08,-1.00000001949,0.0,0.0,0.0
2015-08-27 10:10:05.392,42.3500452191,-71.1104027834,3.215359,10.68,-0.0435631287787,-0.0840039557848,-0.983359961571,-0.072772359625,0.0787894274072,0.0193067827907,1.01239617162,0.605391394125,0.0918995441616,-0.0468877517362,-0.0871473867876,0.0441116347888,-0.018852225754,0.207214126298,0.528550051094,0.823007741723,-1.19784512587e-08,-4.50828978316e-09,-1.00000002056,0.0,0.0,0.0
2015-08-27 10:10:05.470,42.3500452191,-71.1104027834,3.215359,10.68,-0.0166902470331,-0.0805875409044,-1.04178825116,0.0683035954821,0.0781200432492,-0.0300450636881,1.01660033313,0.594709508546,0.0979437422547,-0.0278209568421,-0.0906248155017,-0.0286973428694,-0.0161336879676,0.203978218105,0.52921550183,0.82344613866,-7.92045434794e-09,-5.60951660122e-09,-1.00000000487,0.0,0.0,0.0
2015-08-27 10:10:05.509,42.3500452191,-71.1104027834,3.215359,10.68,-0.0325390390041,-0.0435054828814,-0.902600284421,-0.0554396471167,0.0624293968734,-0.037057032683,1.01015850861,0.594063857272,0.107270929488,-0.0133039716744,-0.0477563644988,-0.0209971310264,-0.0128988465792,0.205190857948,0.526973610172,0.824638797143,2.89866408654e-10,9.50385117826e-10,-0.99999998179,0.0,0.0,0.0
2015-08-27 10:10:05.567,42.3500452191,-71.1104027834,3.215359,10.68,0.00518864036725,-0.00690932832507,-1.08822432829,0.0939352776382,0.0348471574906,-0.0542525512655,1.00646195989,0.593345022363,0.108738626329,0.000820104186421,-0.0271720231234,0.0168931191461,-0.0123829922842,0.2054581187,0.525419776889,0.825571124141,-4.16605019926e-09,-4.07765932131e-10,-0.999999980006,0.0,0.0,0.0
2015-08-27 10:10:05.626,42.3500452191,-71.1104027834,3.215359,10.68,-0.0352076132793,0.00218684492573,-1.00831895825,0.0571134947207,-0.0942227241912,0.110729328162,1.00636763389,0.594086701819,0.108399121307,0.000294345776809,0.00707612945648,-0.0944316527157,-0.0125417532747,0.205670799229,0.525459817377,0.825490282857,-6.606031e-09,-1.82567030799e-08,-1.00000002319,0.0,0.0,0.0
2015-08-27 10:10:05.684,42.3500452191,-71.1104027834,3.215359,10.68,-0.0470407665793,-0.00506683428429,-1.06570213403,0.102527156623,0.0376786877751,0.0311423361985,1.01423462305,0.586447953781,0.106673012583,-0.0312860346258,0.00533096395893,0.0092525082046,-0.0126727902584,0.20236603893,0.527630483417,0.82492027472,-5.20040699392e-09,-5.09754108369e-09,-1.00000002209,0.0,0.0,0.0
2015-08-27 10:10:05.742,42.3500452191,-71.1104027834,3.215359,10.68,-0.044520626688,-0.0135258760822,-0.89035538898,-0.0347661486155,-0.0379238083259,0.0746894278388,1.01726699505,0.581269977033,0.106053747638,-0.0909122151973,0.00212003035225,0.0210920258982,-0.0125852754123,0.200405477335,0.528182163896,0.825047184856,-1.24263002665e-09,-7.81799125438e-10,-0.999999978602,0.0,0.0,0.0
2015-08-27 10:10:05.801,42.3500452191,-71.1104027834,3.215359,10.68,0.0754920317212,-0.0554697657243,-1.08253400319,0.182870820361,-0.0101639047611,0.0528392168151,1.02641054973,0.571700607778,0.101258725985,0.00626071134747,-0.0182343596318,0.0144292763281,-0.0136414930711,0.196148257836,0.530494135241,0.824570035285,6.93244905925e-09,5.19983585356e-09,-1.00000000608,0.0,0.0,0.0
2015-08-27 10:10:05.867,42.3500452191,-71.1104027834,3.215359,10.68,0.0251234681939,-0.0511293737107,-1.04678781653,0.114005046301,-0.0153840336237,0.119097840872,1.03154569364,0.567086916771,0.108811326011,0.0293895180014,-0.0418654025538,-0.0572633615467,-0.0107070093874,0.19485090158,0.532454555523,0.823656865695,1.29351002132e-08,5.63516015795e-09,-0.999999977868,0.0,0.0,0.0
2015-08-27 10:10:05.917,42.3500452191,-71.1104027834,3.215359,10.68,-0.000123971187644,-0.0327332000319,-1.14540054067,0.15151999686,0.0357254933968,0.0701657201152,1.03996566709,0.558222252458,0.116554312147,0.0250920506942,-0.0455001991457,-0.106775252884,-0.00745594726233,0.191945132827,0.535249271341,0.822562880492,6.78346570582e-09,5.52371182128e-09,-1.000000007,0.0,0.0,0.0
2015-08-27 10:10:05.976,42.3499886413,-71.1104797293,3.029934,11.3,-0.0614088578898,0.00292850704187,-0.987964920592,0.05678736311,-0.0297617541499,0.126738996792,1.04134077304,0.557499901449,0.120266828339,-0.0216772369381,-0.023756619744,-0.122537913268,-0.00612258476823,0.191894552268,0.535926784991,0.822144437368,-4.10110095883e-09,9.46664455159e-10,-1.00000000487,0.0,0.0,0.0
2015-08-27 10:10:06.034,42.3499886413,-71.1104797293,3.029934,11.3,-0.0434333642812,-0.0227237600903,-0.998855766712,0.111353056896,0.00413665861404,0.0138020573952,1.04679943411,0.553531629733,0.114168454601,-0.0673760351962,-0.00313224839594,0.0401194634548,-0.00794986386512,0.189665793329,0.53736737315,0.821705538974,4.4893133655e-10,-1.01063865054e-08,-0.999999999755,0.0,0.0,0.0
2015-08-27 10:10:06.103,42.3499886413,-71.1104797293,3.029934,11.3,0.0215291461172,-0.0145395878795,-1.01877063121,0.148150171368,0.0109323129956,0.0363134654632,1.050836865,0.54385839263,0.115119938287,-0.01728161272,-0.0141709504269,-0.0381864296716,-0.00703876747104,0.186386796882,0.537905971617,0.82211166115,-1.69569092101e-09,-5.71363213686e-09,-0.999999977241,0.0,0.0,0.0
2015-08-27 10:10:06.151,42.3499886413,-71.1104797293,3.029934,11.3,0.0461206154591,-0.0202694517046,-1.06141179919,0.185839395309,-0.0681934032432,0.0561447339046,1.05761999029,0.533696860489,0.120290428937,0.030815866336,-0.0208965516706,0.0149391859845,-0.00462519860178,0.183060765314,0.539754404394,0.821664497638,1.29109219427e-08,1.19658904313e-08,-0.999999978816,0.0,0.0,0.0
2015-08-27 10:10:06.209,42.3499886413,-71.1104797293,3.029934,11.3,-0.0401032883607,-0.0149075388049,-0.992147662655,0.0113882127097,0.0168380078293,0.0999244088288,1.06162602706,0.528920433292,0.12669662078,0.044842238914,-0.0288519864959,-0.114564816378,-0.00213352723165,0.181750150418,0.541166061249,0.821036920629,2.97773444791e-10,8.36718529185e-09,-1.00000001604,0.0,0.0,0.0
2015-08-27 10:10:06.268,42.3499886413,-71.1104797293,3.029934,11.3,-0.0495565851497,-0.0625563072266,-0.95575606594,0.0735010981313,-0.0726626292035,0.0552528819841,1.0665354151,0.528063476863,0.120283638479,-0.0381916700984,-0.0568240538232,0.0374632171544,-0.00421908224627,0.180535001295,0.542760197891,0.820244280832,6.0055632134e-09,8.58912757584e-09,-1.00000000955,0.0,0.0,0.0
2015-08-27 10:10:06.327,42.3499886413,-71.1104797293,3.029934,11.3,-0.0194123959478,-0.0409519492503,-1.10307083805,0.0283049520957,0.00572559841056,-0.0214743026867,1.06909633799,0.520607133479,0.121153593794,-0.0439330285891,-0.0653030433963,-0.0057976287094,-0.00346366521838,0.178088777659,0.54299108664,0.820629679042,5.75907932454e-09,6.00133748252e-10,-0.999999996961,0.0,0.0,0.0
2015-08-27 10:10:06.384,42.3499886413,-71.1104797293,3.029934,11.3,0.00815695318407,-0.0423196753505,-0.983886473555,0.0519466461229,-0.0294252869956,-0.0162019634116,1.06872252716,0.517407550181,0.121250931349,-0.0192768666609,-0.0299399853275,-0.0690277498114,-0.0032441922741,0.177144802012,0.542474624229,0.821176276085,1.2242744124e-08,8.18138115588e-09,-0.999999983478,0.0,0.0,0.0
2015-08-27 10:10:06.443,42.3499886413,-71.1104797293,3.029934,11.3,-0.0199737549076,-0.065316224808,-1.00585625564,0.00916182322042,-0.00704520277423,-0.00662873465078,1.06826637054,0.511897474889,0.120713089919,0.0119604339534,-0.0461748777083,0.00673745719435,-0.0030996291497,0.175443443014,0.541632056855,0.82209774698,-1.13296427795e-09,-7.72307871821e-09,-1.00000001562,0.0,0.0,0.0
2015-08-27 10:10:06.505,42.3499886413,-71.1104797293,3.029934,11.3,-0.0109320747999,-0.0307676270058,-1.03467876954,0.0924338061234,-0.00691018339593,0.0103271401007,1.06951330012,0.505453757767,0.12382988361,-0.0162271929262,-0.0611876507873,-0.0220173994071,-0.00164468114433,0.173604034457,0.54157092337,0.822532594615,-2.74086708885e-09,-1.53544436471e-08,-1.0000000177,0.0,0.0,0.0
2015-08-27 10:10:06.560,42.3499886413,-71.1104797293,3.029934,11.3,-0.0394899192982,-0.0332955843995,-1.08325875713,0.118593247959,0.0340561294611,-0.0336204315788,1.07074813467,0.496964345284,0.127667885803,-0.0308723750199,-0.0316461191934,-0.0393213052946,0.000182476442358,0.171193091625,0.541320355144,0.823204206251,-1.60137646477e-08,-1.40611135235e-08,-1.00000001522,0.0,0.0,0.0
2015-08-27 10:10:06.618,42.3499886413,-71.1104797293,3.029934,11.3,-0.0830931369284,-0.0156835090531,-0.966367318842,-0.0347025262098,-0.0121516879649,0.00553536788545,1.06938511222,0.495173632324,0.1288545835,-0.0393349215282,-0.0321826394876,-0.0832980294543,0.0006854010517,0.17085092442,0.540619123084,0.823735670956,1.25092944059e-08,9.46443953764e-09,-1.00000000058,0.0,0.0,0.0
2015-08-27 10:10:06.676,42.3499886413,-71.1104797293,3.029934,11.3,-0.0624016357149,-0.0134207544429,-0.920004192829,0.0384472317534,-0.0274563904496,-0.0125816270188,1.06919233783,0.489485649165,0.12487655332,-0.0834736894587,-0.0186976974446,0.0695626328387,-0.000301302999724,0.168784759994,0.539721638379,0.824749760276,5.23704471456e-09,-8.23752370482e-09,-0.999999975329,0.0,0.0,0.0
2015-08-27 10:10:06.751,42.3499886413,-71.1104797293,3.029934,11.3,-0.0147473547234,-0.0362385901798,-0.972217365781,0.152166299323,0.0432511153924,-0.0139070579005,1.06972476084,0.479874996085,0.120849030299,-0.0574368287942,-0.0222023217895,0.0864764495982,-0.00104176178459,0.165434256409,0.538709442964,0.826088710491,3.57341445323e-09,1.80761443314e-08,-0.99999998299,0.0,0.0,0.0
2015-08-27 10:10:06.793,42.3499886413,-71.1104797293,3.029934,11.3,0.0130631390971,0.00837616538334,-1.00375744678,0.063096520545,0.0220966536865,0.0368760516867,1.07046246468,0.472018087767,0.12837971464,0.00550292528544,-0.0158693539125,-0.0344901260874,0.00200884063597,0.163557891898,0.538536882335,0.82657292898,-1.02668199498e-08,-2.48260093039e-09,-1.00000000865,0.0,0.0,0.0
2015-08-27 10:10:06.852,42.3499886413,-71.1104797293,3.029934,11.3,-0.0248506376876,-0.0106077531191,-0.965577292918,0.0226155683459,-0.0279120196404,0.0602828956669,1.07155260573,0.470415000735,0.130666647424,-0.0048890000766,0.00298245863198,0.0459748929167,0.00288861109374,0.163160844999,0.53892663356,0.826394747215,3.53971521538e-09,5.03873762159e-09,-1.00000000161,0.0,0.0,0.0
2015-08-27 10:10:06.909,42.3499886413,-71.1104797293,3.029934,11.3,-0.0737619544963,0.0130140932619,-1.12195814189,0.196643489454,0.0358950971256,0.000337679642485,1.07657401983,0.460591694094,0.129947801284,-0.0484258374746,-0.00500823656813,-0.0358872456545,0.0033181676645,0.15965902235,0.539939707768,0.826415814418,3.3548835654e-09,1.41193880893e-08,-0.99999997724,0.0,0.0,0.0
2015-08-27 10:10:06.988,42.349939188,-71.1104837526,3.836208,11.94,-0.127713297861,0.0346690606482,-1.04399012742,0.0865389392269,-0.0913086082873,0.0721648822918,1.07849007512,0.452122101953,0.135753107672,-0.111929050462,0.0370382423517,-0.0951022061815,0.00583486174461,0.157360529078,0.540132530754,0.826716679098,1.38274368344e-08,1.29897942958e-08,-0.999999974986,0.0,0.0,0.0
2015-08-27 10:10:07.027,42.349939188,-71.1104837526,3.836208,11.94,-0.108534831821,0.0296718799506,-1.17226906056,0.134380269537,0.0522984289112,0.0460210730649,1.08232899879,0.444923045942,0.130053805808,-0.114661523602,0.035130885435,-0.060198625684,0.00443133635839,0.154367075178,0.540728304552,0.826900278157,-8.95802848566e-10,-2.90394915059e-09,-0.999999997142,0.0,0.0,0.0
2015-08-27 10:10:07.085,42.349939188,-71.1104837526,3.836208,11.94,-0.175715774365,0.00617875706983,-0.994770832352,0.0743848135658,-0.0398127065158,0.0518929710552,1.08552523971,0.441089381821,0.135702277761,-0.118778720152,0.0317419688968,-0.162562030395,0.00658673428849,0.153400839462,0.541921014805,0.826284703415,1.03801848506e-08,8.89766645085e-09,-0.999999975082,0.0,0.0,0.0
2015-08-27 10:10:07.145,42.349939188,-71.1104837526,3.836208,11.94,-0.128936387928,-0.00443048531252,-1.01001709632,0.0183414957185,0.0334591400721,0.0101331614675,1.09143192525,0.427206410734,0.123037467573,-0.156419281177,0.0063022423127,0.0135891851239,0.00335960495894,0.147619730462,0.542443711811,0.827013873977,-4.1917227328e-09,5.24065359164e-09,-0.999999998397,0.0,0.0,0.0
2015-08-27 10:10:07.202,42.349939188,-71.1104837526,3.836208,11.94,-0.011655323952,0.00578565603686,-0.957238590694,0.0128486518356,0.085588030631,0.0766966686339,1.09185669236,0.428912090635,0.118860880208,-0.0789477417139,0.000551031600884,0.00393455974307,0.00185899545984,0.147770735037,0.542601805461,0.826887921494,4.37576998247e-09,7.12412644155e-09,-0.999999997097,0.0,0.0,0.0
2015-08-27 10:10:07.260,42.349939188,-71.1104837526,3.836208,11.94,0.028560709142,-0.000110965269502,-0.939815744039,0.0144112401392,0.0912352060825,0.0792476581974,1.09340510552,0.43379680532,0.120146026366,0.0248091969709,0.00241738959806,0.0272491702001,0.00195642147171,0.149276745519,0.543765381015,0.825852187787,-7.6256578968e-09,3.53107031115e-09,-1.00000001025,0.0,0.0,0.0
2015-08-27 10:10:07.319,42.349939188,-71.1104837526,3.836208,11.94,-0.0216833882951,0.0132116636015,-0.96421945324,0.0655275355985,0.0514218226955,0.0828849589613,1.09408656173,0.437325962723,0.121054937068,0.0265874266332,-0.000916604273753,0.0601268055932,0.0020196279422,0.150392910803,0.544427579732,0.825213005175,-1.3613171701e-09,-4.40784839184e-09,-0.999999994833,0.0,0.0,0.0
2015-08-27 10:10:07.386,42.349939188,-71.1104837526,3.836208,11.94,-0.130922833822,0.0232454640764,-1.0129137438,0.127831319127,0.063121271441,0.0536617289155,1.09740950667,0.438184485664,0.123307152385,-0.0372585779263,0.0166609312429,0.027941694913,0.00272706263455,0.150597777556,0.545976721842,0.824149435316,1.24260366857e-08,4.88849645486e-09,-0.999999983868,0.0,0.0,0.0
2015-08-27 10:10:07.436,42.349939188,-71.1104837526,3.836208,11.94,-0.172165536039,0.0221757613493,-1.01166928954,-0.0206140816693,-0.0426518648716,0.0846815251008,1.10034702171,0.434789939354,0.12524582706,-0.14573887182,0.0241581298896,-0.0204521580058,0.0036162702693,0.149493823534,0.546938889586,0.82370891119,1.11293445293e-09,-2.82615056357e-09,-0.999999986291,0.0,0.0,0.0
2015-08-27 10:10:07.494,42.349939188,-71.1104837526,3.836208,11.94,-0.0602494097016,0.0171987542669,-1.12164237846,-0.0445529806197,0.0294461846006,0.0853691759967,1.10709221696,0.425727431716,0.105908107993,-0.140267134431,0.0223639295035,-0.00728783345113,-0.00207945376588,0.144616036565,0.548041645581,0.823852069579,-1.27481451784e-09,-1.05457614863e-09,-0.999999981317,0.0,0.0,0.0
2015-08-27 10:10:07.552,42.349939188,-71.1104837526,3.836208,11.94,-0.0506323302928,-0.0328954676906,-1.06337472902,-0.0206618455782,-0.0473425151235,0.0981632504892,1.11074867434,0.426530426661,0.0953118832852,-0.0401441615614,-0.00178828943503,-0.116649780511,-0.0055763026589,0.143721323206,0.549197209234,0.823222637853,1.07662521398e-08,8.60901044897e-09,-0.999999982053,0.0,0.0,0.0
2015-08-27 10:10:07.631,42.349939188,-71.1104837526,3.836208,11.94,-0.152558545301,-0.021676096742,-1.07281677017,0.0236519129418,0.0523223826606,-0.00976803115409,1.11157218697,0.424556065881,0.0935116780004,-0.0901881225455,-0.0444194466991,-0.0849562572798,-0.00601999463991,0.14290464289,0.549282566684,0.823304733766,-1.76848576061e-09,9.35383986933e-09,-0.999999989274,0.0,0.0,0.0
2015-08-27 10:10:07.669,42.349939188,-71.1104837526,3.836208,11.94,-0.210510140491,0.0203632260402,-0.985715310978,-0.0302885015115,-0.0216412437534,-0.0455777949222,1.10888327538,0.427770394153,0.0940832552798,-0.154578789404,-0.0232250051544,-0.0724951223684,-0.00608608785332,0.144131464609,0.548494917243,0.823615448011,1.00599634595e-08,2.22225311763e-09,-0.999999977007,0.0,0.0,0.0
2015-08-27 10:10:07.728,42.349939188,-71.1104837526,3.836208,11.94,-0.162492307795,0.0365698921804,-1.0191549435,-0.0491704453505,0.0817133926341,-0.0920644383049,1.1032713889,0.429704241313,0.0876768443548,-0.205669340028,0.0182298566376,0.0132507372698,-0.00839170407079,0.144583754668,0.546103169923,0.825103899512,2.07344370839e-09,-8.29581278672e-10,-1.00000001771,0.0,0.0,0.0
2015-08-27 10:10:07.791,42.349939188,-71.1104837526,3.836208,11.94,-0.103217108865,0.0234496901404,-0.921244733997,0.0183638616491,-0.0101176450361,0.0157009190255,1.09542425892,0.434199181383,0.0867047165592,-0.158090831241,0.0315401179989,0.0119398331115,-0.00912100185525,0.146449545964,0.543237546336,0.826657308722,-1.22136750713e-09,1.17437957692e-08,-1.00000001058,0.0,0.0,0.0
2015-08-27 10:10:07.847,42.349939188,-71.1104837526,3.836208,11.94,-0.0995359740776,0.0125887157248,-0.969175072713,0.0460976624664,0.0642068261779,-0.00279297741798,1.09595048705,0.427016552635,0.0752306228301,-0.0751193450537,0.0117489869481,0.0716957991788,-0.0124012101113,0.143201874542,0.542325755265,0.827781497915,9.24341039821e-09,6.93767567006e-09,-0.999999977727,0.0,0.0,0.0
2015-08-27 10:10:07.903,42.349939188,-71.1104837526,3.836208,11.94,-0.14840992673,0.0103411620081,-0.960093849242,0.0288620515533,0.0233087603466,0.0235172701039,1.09525963737,0.427840015252,0.0713996731299,-0.125324767693,0.00642229662508,0.050117322274,-0.0137340285669,0.143176038977,0.54196499642,0.828001172087,6.96730849403e-09,6.45655653941e-09,-1.00000001186,0.0,0.0,0.0
2015-08-27 10:10:07.962,42.3498811433,-71.1104315334,4.15591,10.2,-0.167935865037,0.0247531465409,-0.991574716666,0.0240181815543,0.119289690209,-0.0112170306694,1.09377992591,0.421454913087,0.0628574722984,-0.160087609329,0.0238604572455,0.00412563775234,-0.0161221480872,0.140549989955,0.54043380487,0.829407667687,6.62871442458e-09,-4.51287233971e-09,-0.999999994188,0.0,0.0,0.0
2015-08-27 10:10:08.024,42.3498811433,-71.1104315334,4.15591,10.2,-0.104597677934,0.0187654135477,-1.01487791961,0.0373484767067,0.0555578491441,-0.0018313117867,1.09210995547,0.419906046124,0.0579014759458,-0.136460771845,0.0236057773354,0.0404260827537,-0.017673870014,0.139747607415,0.539408677295,0.830178606927,3.94185038777e-09,1.21748905402e-09,-0.99999999915,0.0,0.0,0.0
2015-08-27 10:10:08.078,42.3498811433,-71.1104315334,4.15591,10.2,-0.0716269024863,0.0110553843976,-1.04065129834,-0.000591482660671,0.0633765907484,0.0761679103605,1.09245533156,0.41805003758,0.0543766593902,-0.088568139746,0.0216788370314,-0.0200720338929,-0.0186979831327,0.138835845836,0.539254137181,0.830409518774,-2.29007623975e-09,6.30437396731e-10,-0.999999996611,0.0,0.0,0.0
2015-08-27 10:10:08.137,42.3498811433,-71.1104315334,4.15591,10.2,-0.0866172331913,0.0231028405722,-1.04723442882,0.0308312501112,0.0618970425627,0.0426051190781,1.09431368062,0.417647113183,0.0502405075076,-0.0770239740038,0.0116097353077,-0.023754965441,-0.0200012938061,0.138222083108,0.539842602833,0.830099131522,-1.0314078619e-08,-1.20485693922e-08,-1.00000002551,0.0,0.0,0.0
2015-08-27 10:10:08.195,42.3498811433,-71.1104315334,4.15591,10.2,-0.112385937486,0.0136432227134,-1.01379184218,-0.0672223882443,0.0204643881117,0.0630529875328,1.09481749343,0.418300502962,0.0421506746541,-0.0945710160791,0.0177872977168,-0.0806798066461,-0.0227050258636,0.137678975983,0.539817906865,0.830135897791,2.71640125671e-09,2.91301251176e-09,-0.999999999312,0.0,0.0,0.0
2015-08-27 10:10:08.267,42.3498811433,-71.1104315334,4.15591,10.2,-0.0892056652948,-0.0235860910137,-1.06420676824,0.0158331352251,0.0233666469033,0.0341548930998,1.09634234037,0.41905956725,0.0322154186406,-0.107146472192,-0.00400679849583,-0.0358367350024,-0.0259993556831,0.136934036217,0.540171405232,0.82993250099,-2.99932485792e-09,5.70571934144e-09,-1.00000003069,0.0,0.0,0.0
2015-08-27 10:10:08.312,42.3498811433,-71.1104315334,4.15591,10.2,-0.0703923716907,-0.0122485315464,-1.06890654333,0.0804403728696,0.0338160190777,0.000617326224535,1.09720880626,0.412446371228,0.0269380406621,-0.0815050838812,-0.011868862896,-0.0505092133292,-0.027233522168,0.134341742032,0.539772951364,0.830575579098,7.33693887589e-09,3.75619661763e-09,-0.999999976437,0.0,0.0,0.0
2015-08-27 10:10:08.370,42.3498811433,-71.1104315334,4.15591,10.2,-0.0877181861742,0.0215027534935,-1.02172728235,-0.0110799417031,0.00113339506517,0.0433539443287,1.09678784531,0.410137744094,0.0261543167102,-0.0774385768268,0.00831176719003,-0.0549741646,-0.027330490329,0.133577076982,0.539369903527,0.830957469412,3.3527593063e-09,1.06234764041e-09,-0.999999993736,0.0,0.0,0.0
2015-08-27 10:10:08.431,42.3498811433,-71.1104315334,4.15591,10.2,-0.0799269403842,-0.00480083110805,-1.05960470445,0.0277481728552,0.0167686994315,-0.00167351234676,1.09817496251,0.406843884819,0.0197495740679,-0.0851846835634,0.0167024209511,0.00703377579128,-0.0291591104186,0.131884627457,0.539455899775,0.831109814356,1.43832065702e-09,-9.47334195811e-09,-0.999999975997,0.0,0.0,0.0
2015-08-27 10:10:08.506,42.3498811433,-71.1104315334,4.15591,10.2,-0.08108981653,0.0138629551066,-0.969843652398,0.0633900481118,-0.0144272774961,0.0223923198529,1.09694419978,0.400704465772,0.0149446944841,-0.0850727590241,-0.002152510212,-0.0442548645744,-0.0303058815602,0.129606784576,0.538263522977,0.832199504186,-8.04938005139e-10,1.34044746136e-09,-0.999999973346,0.0,0.0,0.0
2015-08-27 10:10:08.546,42.3498811433,-71.1104315334,4.15591,10.2,-0.0633222323584,0.0116267661909,-0.975923849336,0.00485190178736,0.0138795566481,0.0134540509071,1.09741941502,0.393253922205,0.00816962827397,-0.0688402020951,0.0046736229001,0.019197331825,-0.0319547310888,0.126628200997,0.537633604079,0.83300318225,6.24688184514e-09,6.71607663927e-09,-0.999999995479,0.0,0.0,0.0
2015-08-27 10:10:08.604,42.3498811433,-71.1104315334,4.15591,10.2,-0.0737667998076,-0.0148067133033,-0.944980553343,0.0132541351983,-0.0218122817553,0.0495929224832,1.09734053149,0.392765469632,0.00200507463193,-0.0683555846495,-0.00266860960998,0.022935752574,-0.0339370289766,0.125918549111,0.537370287182,0.83320223926,-1.6177022083e-09,-4.96758911783e-10,-1.00000000176,0.0,0.0,0.0
2015-08-27 10:10:08.673,42.3498811433,-71.1104315334,4.15591,10.2,-0.0794786845792,-0.0139854392041,-0.986641598552,0.0394583822884,0.0283083282967,0.0258101255644,1.09746364892,0.388342625799,-0.00339056352389,-0.0599261964019,-0.00639051782727,0.000794560875835,-0.0353623933413,0.124029481475,0.536903878345,0.833726822335,2.36330016667e-09,5.21096736594e-09,-1.00000000667,0.0,0.0,0.0
2015-08-27 10:10:08.721,42.3498811433,-71.1104315334,4.15591,10.2,-0.0601610963169,0.0114409581338,-1.02120349661,0.0304315963714,0.0332113342342,0.00346684864097,1.09835894104,0.377251714029,-0.0111520071477,-0.0628011438887,0.00661492816482,-0.0220872558356,-0.0370225496528,0.119778658889,0.536188680911,0.834735947564,1.67137627349e-09,-1.37761936581e-09,-1.00000000102,0.0,0.0,0.0
2015-08-27 10:10:08.791,42.3498811433,-71.1104315334,4.15591,10.2,-0.0490082446391,0.00167031054157,-1.02274373744,0.0102353982742,0.0184595908089,0.0247115211645,1.09775810343,0.376904678186,-0.0141217597421,-0.0578340327168,0.00603599985319,-0.0141886895653,-0.0379799233552,0.119429613361,0.535824332535,0.834976872456,3.4236519314e-09,-2.13874054578e-09,-0.999999987379,0.0,0.0,0.0
2015-08-27 10:10:08.889,42.3498811433,-71.1104315334,4.15591,10.2,-0.0270361198643,-0.00479399421326,-1.07649732918,0.0155405445796,0.0305813094212,0.0217058906033,1.09781780842,0.374590628916,-0.0183979592417,-0.0383811860555,0.00153649735156,-0.0221039930057,-0.0391931984,0.118302568306,0.535554879217,0.835254073248,-3.64932209451e-10,-3.38825745239e-09,-1.00000000948,0.0,0.0,0.0
2015-08-27 10:10:09.002,42.3498811433,-71.1104315334,4.15591,10.2,-0.0413568954957,0.000719428665906,-1.02601583073,0.00278057327961,0.025054224,0.0323490259518,1.09770500335,0.371533412896,-0.021293882032,-0.0405038707709,0.00606800715617,-0.0502380356911,-0.0399018377082,0.117077625161,0.535197924894,0.835621836852,6.44287886931e-10,1.09487505173e-09,-1.00000001423,0.0,0.0,0.0
2015-08-27 10:10:09.205,42.3496019002,-71.1104481295,4.379116,10.45,-0.0403905930739,-0.0204162733456,-1.04988382484,-0.0198594801481,0.000149075440522,0.0310814804886,1.09813621108,0.369056563919,-0.0303581767153,-0.0399346168994,-0.00383096305628,-0.0264559962792,-0.042647479593,0.115430680267,0.534957514201,0.835869253255,-4.65921905224e-09,-5.12574156036e-09,-1.00000002429,0.0,0.0,0.0
2015-08-27 10:10:09.385,42.3496019002,-71.1104481295,4.379116,10.45,-0.0369626769107,0.00307713010878,-1.05751333099,0.0185231784929,0.0281206686093,0.00135510778166,1.09822657412,0.360290269772,-0.0350602433431,-0.0376167711906,-0.0254334641267,-0.0785219756548,-0.0434829678698,0.11222207123,0.534239432153,0.836721977342,-6.18068846103e-10,-9.1011007064e-10,-1.00000001463,0.0,0.0,0.0
2015-08-27 10:10:09.552,42.3496019002,-71.1104481295,4.379116,10.45,-0.0200100809366,0.0132262860986,-1.02049540145,-0.0655265195413,-0.0334030139824,0.0314544603262,1.09767132379,0.357399177858,-0.0368816654159,-0.0345188844329,0.00356241960489,-0.0575943989656,-0.0438611660092,0.111167911851,0.533752724261,0.837153464327,1.24812712943e-09,-1.51564538697e-10,-0.999999998411,0.0,0.0,0.0
2015-08-27 10:10:09.728,42.3496019002,-71.1104481295,4.379116,10.45,-0.00645288757028,-0.001135216125,-1.05594687006,0.035384456046,0.0377625964936,0.00387108679257,1.09664841012,0.3569178994,-0.0463828841024,-0.0194741428635,0.00450924579506,0.0112933459969,-0.0469392231153,0.110175919697,0.53305635042,0.837561283328,-8.57525578324e-10,4.50049150724e-10,-1.00000002865,0.0,0.0,0.0
2015-08-27 10:10:09.789,42.3496019002,-71.1104481295,4.379116,10.45,-0.0465515602227,0.00115648771422,-0.924811414352,0.00366224962219,-0.00362223063155,0.031063978213,1.09442189687,0.356176013528,-0.0462737272788,-0.0208369189531,0.00512806706967,-0.0363228561409,-0.0469110005294,0.110065846606,0.532058695762,0.838211436157,-3.44939213304e-09,-7.98355007103e-09,-1.00000000663,0.0,0.0,0.0
2015-08-27 10:10:09.816,42.3496019002,-71.1104481295,4.379116,10.45,-0.0244447402347,0.00302323255152,-0.984732095562,0.0316284734398,-0.000175135211702,0.0128550427063,1.09358302852,0.354392868685,-0.0525248732575,-0.0330000708083,-0.0100909200674,0.0531407797676,-0.0488250701734,0.108952994677,0.531432103268,0.838644905243,-3.96769754551e-09,-6.00903836412e-09,-1.00000002483,0.0,0.0,0.0
2015-08-27 10:10:09.819,42.3496019002,-71.1104481295,4.379116,10.45,-0.0314420137667,0.011789759824,-0.979105160607,0.0433204792839,0.0602788947008,-0.00246066848639,1.09224458406,0.35173947962,-0.0535656651461,-0.0314812339458,-0.00312864149428,0.0260899384927,-0.0489909050719,0.108081288397,0.530654569738,0.839240164634,4.61055429946e-09,4.6720666641e-09,-0.999999974697,0.0,0.0,0.0
2015-08-27 10:10:09.820,42.3496019002,-71.1104481295,4.379116,10.45,-0.0372657803606,-0.0028172500522,-0.867330014719,-0.100550049326,-0.0556294136442,0.0640525964311,1.08929658118,0.355939791231,-0.0584987554447,-0.0410971100016,0.00923984711928,0.0728980271788,-0.0510252328159,0.109092366635,0.529573424407,0.839670929186,4.48374226636e-10,1.29535564913e-09,-0.999999975901,0.0,0.0,0.0
2015-08-27 10:10:09.822,42.3496019002,-71.1104481295,4.379116,10.45,0.0165978850165,-0.0263243579342,-1.1413820052,0.159476713823,0.14534613377,-0.0158321743144,1.09078024459,0.351730047478,-0.0576181437107,0.0155885313955,-0.0283082433909,0.00715863304834,-0.0503527824821,0.107766393343,0.529937774752,0.839652878667,5.49129808292e-09,1.07082796311e-08,-0.999999978329,0.0,0.0,0.0
2015-08-27 10:10:09.825,42.3496019002,-71.1104481295,4.379116,10.45,-0.0537593239402,0.0219203435608,-0.960781592817,-0.0173673838552,0.0383747631404,0.0308724542562,1.08743491619,0.355164162168,-0.052744425158,-0.0447634824146,0.0259184003656,-0.0319353316809,-0.0491469771009,0.109489195292,0.528855315148,0.840183757517,3.28520033399e-09,4.89505094098e-09,-0.999999992891,0.0,0.0,0.0
2015-08-27 10:10:09.827,42.3496019002,-71.1104481295,4.379116,10.45,0.0178145697514,-0.00290384093241,-0.990676865253,-0.0269254510723,0.04052350209,0.0430675341132,1.08686756677,0.358034959095,-0.0575632076158,-0.0401350125687,0.0171971592318,0.0440197930774,-0.0509660469495,0.109970081944,0.528701527208,0.840109360895,3.63630518752e-09,5.36948574492e-09,-0.99999998399,0.0,0.0,0.0
2015-08-27 10:10:09.829,42.3496019002,-71.1104481295,4.379116,10.45,0.0288494808367,-0.028952901689,-1.03235706308,0.00573457490114,0.00216227761433,-0.0243047089821,1.08617815465,0.362330944608,-0.0620599605392,0.0378926229358,-0.0324821805204,-0.0249106464873,-0.0527981884037,0.110939252024,0.528604763251,0.83992966249,-1.27739877009e-09,-2.8290566903e-09,-0.999999982782,0.0,0.0,0.0
2015-08-27 10:10:09.830,42.3496019002,-71.1104481295,4.379116,10.45,0.00156547170029,0.0425896223486,-1.05522563896,-0.043345599276,-0.0240054489115,-0.0143567107593,1.0828159897,0.362837790247,-0.0622335176859,0.0189342951405,-0.011322677106,-0.0585610669331,-0.0530048918094,0.111256974703,0.527196488603,0.840759317182,-2.17251952539e-09,-3.49266124355e-09,-1.00000002342,0.0,0.0,0.0
2015-08-27 10:10:09.832,42.3496019002,-71.1104481295,4.379116,10.45,0.0154055477424,0.026598739274,-1.07839115216,0.0134033249256,0.0344614957127,0.0312424663299,1.07969601481,0.370204527461,-0.0677752477695,0.00802503256599,0.0366665167754,-0.0668449853736,-0.055508283299,0.113228663188,0.526254711396,0.840924538262,-1.92124452458e-09,-1.62793425268e-09,-1.0000000124,0.0,0.0,0.0
2015-08-27 10:10:09.833,42.3496019002,-71.1104481295,4.379116,10.45,0.0295896598428,0.0035358774164,-1.08910472385,0.15170827298,-0.189253858574,0.146752432229,1.08271966639,0.361426598041,-0.0653109629333,0.0289265525083,0.0222101607403,-0.0832024823396,-0.0538983678266,0.110517665777,0.526986037824,0.840931939835,-1.54372045702e-09,-2.90496902922e-09,-0.999999985807,0.0,0.0,0.0
2015-08-27 10:10:09.834,42.3496019002,-71.1104481295,4.379116,10.45,0.046157629212,0.0933789426263,-0.972190675833,0.0497969014604,-0.186098474808,0.546255370873,1.10824026834,0.347075987244,-0.0779173874391,0.0690017185174,0.0744321861979,-0.0731148043484,-0.0559632591178,0.103519209924,0.536654702978,0.835555872804,4.67855859609e-09,9.92633997221e-09,-0.999999976426,0.0,0.0,0.0
2015-08-27 10:10:09.887,42.3496019002,-71.1104481295,4.379116,10.45,-0.0716949933473,-0.0269724825644,-0.988963230224,0.0507446159594,-0.102943410335,0.264482019898,1.12181088217,0.337360876458,-0.0926820733274,0.0710604712927,0.0875997660531,-0.0220779081666,-0.0594235095564,0.0984537257179,0.541542386564,0.832771009317,-2.12458245441e-10,-5.85399666242e-10,-0.999999970834,0.0,0.0,0.0
2015-08-27 10:10:09.956,42.3496019002,-71.1104481295,4.379116,10.45,-0.0585809093571,-0.0785433388478,-1.05072111961,0.00471102001261,0.0773731114485,-0.110557200962,1.13580126338,0.33149725088,-0.105116794377,-0.0207209802159,-0.0253199639587,-0.0857889324541,-0.0623730093083,0.0948553361524,0.546923760954,0.829449499739,1.45441390875e-09,3.38299013108e-09,-1.00000000532,0.0,0.0,0.0
2015-08-27 10:10:10.026,42.3494442423,-71.1100758001,5.343044,10.87,-0.0180113954533,-0.0451181605046,-1.01925013992,-0.0819337044537,0.0713986445558,-0.163727275826,1.12561350339,0.337432716232,-0.100727784134,-0.0599177082776,-0.0864387883881,-0.0431155959678,-0.0618449577994,0.0975513739399,0.543034784043,0.83172841358,-1.93176698249e-09,-4.2385916027e-09,-0.999999999192,0.0,0.0,0.0
2015-08-27 10:10:10.062,42.3494442423,-71.1100758001,5.343044,10.87,0.0179304430196,0.0274843976279,-0.943008367078,-0.142845181038,-0.0423044033214,-0.0732785656101,1.11202619963,0.34733447049,-0.102146783797,-9.11774638356e-05,-0.000832459769806,0.0253638184826,-0.0636067059969,0.101119587474,0.537858330436,0.83452826936,1.03582574462e-09,2.21626198643e-09,-0.999999986045,0.0,0.0,0.0
2015-08-27 10:10:10.120,42.3494442423,-71.1100758001,5.343044,10.87,0.00191899682177,-0.0132251647015,-1.0100806879,-0.0491145646224,0.0935235360774,-0.0736311652223,1.10346120499,0.358388395713,-0.11044369406,0.0109618369741,-0.0112099073934,0.0257202094489,-0.0674816692879,0.10419319984,0.534783020989,0.835821226028,-1.29456356746e-09,-2.64872807715e-09,-0.999999983849,0.0,0.0,0.0
2015-08-27 10:10:10.184,42.3494442423,-71.1100758001,5.343044,10.87,-0.00858705601501,0.000660181067668,-0.936009551063,-0.0134508651121,0.0966516244237,-0.0700044540699,1.09546185976,0.362479694181,-0.106975549401,-0.0112975493067,-0.00964231625679,0.0326994355953,-0.067016488757,0.106195899029,0.531687452501,0.837579652402,-4.88779336449e-09,-1.02882133854e-08,-1.00000002254,0.0,0.0,0.0
2015-08-27 10:10:10.237,42.3494442423,-71.1100758001,5.343044,10.87,-0.00694099891084,0.00408941874998,-0.913793586201,-0.171309714936,0.158947813991,-0.111812438149,1.09074810778,0.368006067339,-0.106175231157,-0.0104590506224,0.00469040523069,0.0675549238098,-0.0673890846642,0.108249068461,0.530052968138,0.838322552132,4.77005615562e-09,9.821768919e-09,-0.999999973782,0.0,0.0,0.0
2015-08-27 10:10:10.296,42.3494442423,-71.1100758001,5.343044,10.87,0.0176809061278,0.0282253287149,-1.01266949033,-0.1716002789,0.225226353667,-0.0576551400374,1.0769926443,0.389088482682,-0.106713329793,-0.0108102624083,-0.00992968330138,0.0474372010425,-0.0697974875526,0.115578161138,0.525612505776,0.839941362936,-2.74330935746e-09,-5.2723678548e-09,-1.00000001787,0.0,0.0,0.0
2015-08-27 10:10:10.354,42.3494442423,-71.1100758001,5.343044,10.87,0.031771821193,0.0433599451876,-1.0523695295,-0.123298862076,0.11323976421,0.0799559838584,1.06694268684,0.413653321114,-0.107095412624,0.0198259271265,0.0422800321457,-0.0446426959365,-0.0722636898573,0.123896763894,0.523126141594,0.840099155461,-1.18313739361e-09,-3.45291782666e-09,-0.999999989,0.0,0.0,0.0
2015-08-27 10:10:10.426,42.3494442423,-71.1100758001,5.343044,10.87,0.0205850944077,-0.00718530693832,-1.10807384368,0.0275582820797,0.0410132968755,0.128141325045,1.06928711374,0.424558564285,-0.111598277261,0.0271998944261,0.0162061591518,-0.077480274755,-0.0744680848781,0.126781261668,0.524908883192,0.838362499383,7.67190382056e-09,1.50948594735e-08,-0.999999988185,0.0,0.0,0.0
2015-08-27 10:10:10.471,42.3494442423,-71.1100758001,5.343044,10.87,-0.00862545593675,-0.0232267972796,-1.05087418352,0.000714040111455,0.0263405697361,0.0609858310223,1.07435257578,0.424017101101,-0.11332418945,0.0105023200956,-0.00692787241587,-0.0746745626509,-0.0747637696119,0.126149328064,0.527016133776,0.837108547634,-2.2771069752e-10,-4.14250578284e-11,-1.00000000946,0.0,0.0,0.0
2015-08-27 10:10:10.529,42.3494442423,-71.1100758001,5.343044,10.87,-0.00830911347228,-0.0240366791045,-1.07227281466,-0.000869316572698,0.0301017358378,-0.0271251316304,1.07228504027,0.424867021822,-0.112708117155,-0.0111596194357,-0.0241972022183,-0.0753405173983,-0.0747199960679,0.126597389038,0.526205149406,0.837554872241,-3.89134655054e-09,-6.50972577232e-09,-1.0000000285,0.0,0.0,0.0
2015-08-27 10:10:10.616,42.3494442423,-71.1100758001,5.343044,10.87,0.000579007641267,-0.0151058831877,-1.108166004,0.0820123931767,0.0290219334782,-0.00097043932816,1.06994036034,0.424547400271,-0.110918946859,-0.00886774215368,-0.0270119796334,-0.076074262378,-0.0742167060836,0.126807742746,0.525206057099,0.838194651918,-5.05716801769e-10,-1.17729231919e-09,-0.999999994557,0.0,0.0,0.0
2015-08-27 10:10:10.669,42.3494442423,-71.1100758001,5.343044,10.87,0.00301142922432,0.00313719669815,-1.07778179075,0.0482222683173,0.0234530216168,0.00743475990132,1.06831061204,0.420727048649,-0.106694195685,0.00118261077309,0.0044710875579,-0.105824580833,-0.0726175479987,0.126107601099,0.524290054523,0.839013410737,-4.49832256166e-09,-8.88020737499e-09,-1.00000001315,0.0,0.0,0.0
2015-08-27 10:10:10.704,42.3494442423,-71.1100758001,5.343044,10.87,0.0136326133767,-0.00171815237372,-1.03477046075,0.0598656610096,0.0304039840019,0.00677495611065,1.06685651115,0.41974573431,-0.104425586536,0.00616472290194,0.0142920234974,-0.0510409859696,-0.0718633790956,0.12610416112,0.523634864359,0.839487893969,-1.00190875041e-09,-1.43672403141e-09,-0.999999996684,0.0,0.0,0.0
2015-08-27 10:10:10.763,42.3494442423,-71.1100758001,5.343044,10.87,0.0016077542132,0.0147550548966,-0.959412367052,0.0131176756906,0.020610605444,0.0309432028155,1.06661175283,0.418646359086,-0.103018398208,0.00932552345332,0.0111041507262,-0.00706189021126,-0.0713291455208,0.125908229507,0.523473708665,0.839663353421,8.54770781933e-10,2.35759743672e-09,-1.00000001791,0.0,0.0,0.0
2015-08-27 10:10:10.827,42.3494442423,-71.1100758001,5.343044,10.87,-0.00986461478823,-0.00974603181146,-0.953912205437,-0.0289409441261,0.0641483803625,0.000807497337847,1.06557418147,0.4201710766,-0.104611547627,0.00175585506932,0.0131933882623,0.0405651468023,-0.0720116928407,0.126294623369,0.523109712509,0.839773905811,-3.07692962775e-09,-5.85790098373e-09,-0.999999998314,0.0,0.0,0.0
2015-08-27 10:10:10.879,42.3494442423,-71.1100758001,5.343044,10.87,-0.0012350812461,0.00342374393729,-0.983689093755,0.0749904628599,0.0316383209989,0.0603425677291,1.06323061122,0.422429624341,-0.103950038735,-0.00495482906226,-0.00891752950276,0.00560182476876,-0.072068437713,0.127214335332,0.522292773011,0.840138626913,-3.53731273439e-09,-7.13106065864e-09,-0.999999980815,0.0,0.0,0.0
2015-08-27 10:10:10.938,42.3494442423,-71.1100758001,5.343044,10.87,-0.00724710305283,-0.00967309536153,-0.980788896417,-0.00741319573005,0.043708429028,0.000458797223896,1.06421709779,0.422085339966,-0.104324569233,-0.00142659381304,0.00450096927836,0.0208129239349,-0.0721225455601,0.12701036813,0.522683284765,0.839921953896,-1.7753098297e-09,-4.48039541578e-09,-0.999999973826,0.0,0.0,0.0
2015-08-27 10:10:10.996,42.3494442423,-71.1100758001,5.343044,10.87,0.00124820009997,0.00248183919214,-1.04148908367,-0.0165295674842,0.0587309309645,-0.0112741132963,1.06170662517,0.423580614709,-0.104657970704,-0.0105404457226,-0.00686661404332,-0.00123533219618,-0.0724540105317,0.127598876128,0.521708827982,0.840409924962,-8.86341317008e-09,-1.76261082535e-08,-1.00000001783,0.0,0.0,0.0
2015-08-27 10:10:11.073,42.3494442423,-71.1100758001,5.343044,10.87,0.021090386939,0.00735228320856,-1.02544747326,-0.0231823584458,0.00807293477315,0.0206459979228,1.05766073731,0.426966001709,-0.105195456632,0.0119965443894,0.0102539880896,-0.0295008794851,-0.0730637872503,0.128860912273,0.520217091297,0.841089012057,-4.0700049303e-09,-7.73845160174e-09,-1.00000000097,0.0,0.0,0.0
2015-08-27 10:10:11.113,42.3494442423,-71.1100758001,5.343044,10.87,0.0052143375273,-0.0210487255491,-1.0549036581,-0.0405484628961,0.0207014963897,-0.0063872024272,1.0552548597,0.431950836561,-0.109041866076,0.0202963629365,-0.0103185831001,-0.039824273164,-0.0748137818304,0.130207700118,0.519489228082,0.841177623802,-4.32520708138e-09,-8.77381067799e-09,-0.999999992754,0.0,0.0,0.0
2015-08-27 10:10:11.171,42.3493194273,-71.109846079,5.513058,10.03,-0.0081023102464,0.0220115576218,-1.09680247527,0.0114677023603,0.0306328785543,0.0309522469628,1.05182545839,0.435876905114,-0.108826666857,-0.00635107539113,-0.0146941810536,-0.111879294021,-0.0751931292581,0.131687381059,0.518330375691,0.841628212822,-7.90473234091e-09,-1.43353819232e-08,-1.00000001929,0.0,0.0,0.0
2015-08-27 10:10:11.236,42.3493194273,-71.109846079,5.513058,10.03,-0.0460980678473,0.018262465903,-0.995130417095,-0.0539099458235,-0.0338014338097,-0.00872765956842,1.05171974831,0.435413856031,-0.119180585888,-0.034873724272,0.0370289121318,-0.0220395036423,-0.0785697957612,0.130500804807,0.517993740782,0.841711834091,1.16471167433e-09,2.13685184824e-09,-1.00000000472,0.0,0.0,0.0
2015-08-27 10:10:11.315,42.3493194273,-71.109846079,5.513058,10.03,-0.0166806183334,-0.0297000769502,-1.11145205447,0.0355925341551,0.0244441408102,-0.0453304100053,1.04850602958,0.438086496662,-0.122485052825,-0.0520794751126,0.00371676402153,-0.00945399833266,-0.0800085364585,0.131210468908,0.5167360054,0.842238889904,-2.30710932303e-09,-4.54021675811e-09,-0.999999971981,0.0,0.0,0.0
2015-08-27 10:10:11.347,42.3493194273,-71.109846079,5.513058,10.03,0.0130137238504,0.0190780170849,-0.990617161138,0.0189730423377,0.0319608129848,0.0412858902416,1.04379935121,0.434901981425,-0.120760730818,-0.00611355698599,0.00684863570619,-0.0715797992243,-0.0794140899669,0.130647497545,0.514456278531,0.843776849161,-1.96281382814e-09,-3.79773645864e-09,-1.00000000734,0.0,0.0,0.0
2015-08-27 10:10:11.406,42.3493194273,-71.109846079,5.513058,10.03,0.00878076380053,0.011604697573,-0.990057685457,0.0520384872122,0.0320042007147,0.0394552892117,1.04345668339,0.436687171427,-0.122116469071,0.0160768496434,0.0127443826343,0.0253710105603,-0.0800141037161,0.131101631648,0.514422106695,0.843670552722,5.47796540074e-09,1.06339101552e-08,-0.999999973453,0.0,0.0,0.0
2015-08-27 10:10:11.476,42.3493194273,-71.109846079,5.513058,10.03,-0.0239797045785,0.00662075192504,-0.974528909829,-0.000881026140228,0.0851444214375,-0.0149152354662,1.0430139586,0.438449037783,-0.120855631997,-0.0128301008182,-0.00867420969723,0.00641229421234,-0.0797534854177,0.131821339574,0.514405872187,0.843592979259,3.3247971043e-09,6.51848164335e-09,-0.999999989376,0.0,0.0,0.0
2015-08-27 10:10:11.522,42.3493194273,-71.109846079,5.513058,10.03,0.00867832663784,0.0182283135236,-1.00970781753,0.0508190925438,0.034625860156,0.00728880952801,1.04008972979,0.440386303299,-0.119516090477,-0.00759952348964,0.0182464718415,0.00156859296375,-0.0795936933034,0.13275584688,0.513322025951,0.84412157109,-4.06897955607e-09,-7.90262424943e-09,-0.999999979991,0.0,0.0,0.0
2015-08-27 10:10:11.581,42.3493194273,-71.109846079,5.513058,10.03,0.0175179730462,0.0124616323804,-1.05931049249,0.1119034248,0.0351280364891,0.0733947194058,1.0397214639,0.441613343938,-0.11976228189,0.00821209467487,0.0174714304697,-0.00972509743345,-0.0797858292649,0.133146578309,0.513258257729,0.844080666173,2.66752100964e-09,5.2926735078e-09,-1.00000002907,0.0,0.0,0.0
2015-08-27 10:10:11.645,42.3493194273,-71.109846079,5.513058,10.03,0.00622073449341,0.00291372003987,-1.01672663101,0.0909548324325,-0.00630131197457,0.103071204333,1.04312053111,0.439329176366,-0.116160634277,0.016483071387,0.0148544582466,-0.0669968639796,-0.0782655199699,0.132575304074,0.514641732001,0.843470322428,-6.43706254966e-10,-1.05626142555e-09,-1.00000001069,0.0,0.0,0.0
2015-08-27 10:10:11.727,42.3493194273,-71.109846079,5.513058,10.03,-0.00586319366878,-0.0720989541005,-1.00928747742,0.130568771141,0.0787594767959,0.0295574956487,1.04776891753,0.435007107121,-0.114690429363,0.00455433462506,6.2544873886e-05,0.00838983236178,-0.0772400418779,0.131060941855,0.516345492189,0.842759952862,2.3962692941e-11,-1.52183279867e-10,-1.00000000227,0.0,0.0,0.0
2015-08-27 10:10:11.756,42.3493194273,-71.109846079,5.513058,10.03,0.031955155595,-0.0106867411202,-1.09106635841,0.154114926641,0.0468170938529,0.116971843287,1.05085374887,0.429165120365,-0.104135017895,0.0133120907546,-0.0721519859333,-0.0855362165626,-0.0731760887136,0.130073028708,0.51746592167,0.842588444707,-9.68456263795e-09,-1.89741996282e-08,-1.00000002157,0.0,0.0,0.0
2015-08-27 10:10:11.814,42.3493194273,-71.109846079,5.513058,10.03,-0.000797863246433,0.0137674343453,-0.97858504733,0.0613087104561,-0.00350981895351,0.0824060686274,1.05710137914,0.423332156285,-0.097898921044,0.00928225372007,0.0273984574223,0.00861794801498,-0.0704090277819,0.128462917437,0.51985671902,0.841598977744,-8.33836324987e-09,-1.57534329331e-08,-1.00000000848,0.0,0.0,0.0
2015-08-27 10:10:11.888,42.3493194273,-71.109846079,5.513058,10.03,-0.00527976859894,-0.0152288419805,-1.02337960793,0.0495499523825,0.0491053373269,-0.056687784385,1.05590991178,0.421008529546,-0.0946402148539,-0.00988911098347,-0.0101644329859,-0.0273532152931,-0.0692060783525,0.128115957195,0.519231996707,0.84213713481,4.61258059525e-09,1.0155658009e-08,-0.999999981788,0.0,0.0,0.0
2015-08-27 10:10:11.967,42.3493194273,-71.109846079,5.513058,10.03,0.0323297380019,0.015162456332,-0.979132650177,-0.0466266357994,0.0981843913471,-0.0567032171051,1.05232832051,0.421967612246,-0.0928051167776,-0.0065380537149,-0.015550777375,-0.0233675016083,-0.0688207053834,0.128817515689,0.517802403105,0.842941533857,-4.06291016108e-09,-9.53322266961e-09,-1.00000000619,0.0,0.0,0.0
2015-08-27 10:10:11.989,42.3493194273,-71.109846079,5.513058,10.03,0.0463075449276,0.015681626168,-0.971882162921,-0.0639276390086,0.0675360277759,-0.0193456905584,1.04561101214,0.429230342955,-0.0919772544514,0.0359212521803,0.0168942544549,0.00917345894882,-0.069379733687,0.131629947138,0.51550468095,0.843869026264,2.68402948478e-09,6.20616831537e-09,-0.999999989802,0.0,0.0,0.0
2015-08-27 10:10:12.049,42.3493194273,-71.109846079,5.513058,10.03,0.0321116089536,-0.00353487292037,-0.978976211624,-0.0456810153302,0.0542375235344,-0.0149287387703,1.03968480653,0.439789933475,-0.0940703783942,0.0361301437497,0.00363760934944,0.038364324931,-0.0711273379548,0.13517167529,0.513761328536,0.844226757036,4.6404835391e-09,9.57087960274e-09,-1.00000000366,0.0,0.0,0.0
2015-08-27 10:10:12.131,42.3493194273,-71.109846079,5.513058,10.03,0.0260691884744,0.0162710914337,-1.01226203755,-0.0227779901815,0.0131223193275,0.042001558543,1.03481283238,0.446327259669,-0.0948017004433,0.0321775026191,0.000376164778481,0.00505402201655,-0.0720715571145,0.137504463397,0.512181117309,0.844729966482,-1.14574567889e-09,-3.56953580583e-09,-0.999999984184,0.0,0.0,0.0
2015-08-27 10:10:12.167,42.3492892167,-71.1097913032,5.744289,9.68,0.0103836379188,-0.00219907309046,-1.03069846154,0.0084919783469,-0.00401972580318,0.037792697012,1.03228558592,0.456075877104,-0.0943812027855,0.0239877936666,0.013828662189,0.000291329370126,-0.0727728961391,0.140840596133,0.511953119968,0.844258275069,-4.64602525896e-09,-1.11509704109e-08,-0.999999990353,0.0,0.0,0.0
2015-08-27 10:10:12.223,42.3492892167,-71.1097913032,5.744289,9.68,0.00167237527648,0.00226765360074,-1.11102805334,0.172522314414,0.0686129989104,-0.00921041243007,1.03178997631,0.45442738061,-0.0875396113826,0.00977383180725,-0.00925300349164,-0.0879623135194,-0.070382546149,0.141035432773,0.511791160081,0.844526561076,-1.30516214503e-09,-4.36551199356e-09,-0.999999977604,0.0,0.0,0.0
2015-08-27 10:10:12.287,42.3492892167,-71.1097913032,5.744289,9.68,0.043809499035,0.0357183995134,-1.06536394334,0.188209145559,-0.0649212951757,0.0974716186456,1.03246932415,0.450600936784,-0.0821465003698,0.000687063087846,0.00714851806157,-0.111008415663,-0.068262143076,0.140304848768,0.511906969415,0.844752084282,2.40485956149e-09,4.67607111365e-09,-1.00000002531,0.0,0.0,0.0
2015-08-27 10:10:12.371,42.3492892167,-71.1097913032,5.744289,9.68,0.0348234098988,-0.00246203434386,-1.09829046967,0.273998854143,-0.00605492550788,0.097971135207,1.03975702002,0.43613478358,-0.0755229447713,0.0509268629309,0.0482486065112,-0.0710901478435,-0.0646661204307,0.135852140554,0.514007196062,0.844487472478,2.44636874647e-09,5.91032646435e-09,-0.99999999141,0.0,0.0,0.0
2015-08-27 10:10:12.398,42.3492892167,-71.1097913032,5.744289,9.68,0.0254384170022,0.0260351730547,-1.04433637696,0.335730628284,-0.150314830471,0.171717704257,1.04853993448,0.419001736611,-0.0645342192584,0.0462990663888,0.0186989469016,-0.0868490753803,-0.0593642496528,0.13089696308,0.516685350039,0.844024952223,9.7342900407e-09,1.41562773448e-08,-0.999999991885,0.0,0.0,0.0
2015-08-27 10:10:12.457,42.3492892167,-71.1097913032,5.744289,9.68,0.00717416435297,-0.0298516791821,-1.00883620986,0.563001993683,-0.331210838587,0.144481311545,1.06290471849,0.390817131636,-0.0578807347559,0.0235001869604,0.0307217183399,-0.0323239204184,-0.0544612302496,0.121677405097,0.520813996687,0.843197108833,3.01560861005e-09,3.79442406662e-09,-0.999999988153,0.0,0.0,0.0
2015-08-27 10:10:12.528,42.3492892167,-71.1097913032,5.744289,9.68,0.028932691592,-0.0270749305191,-0.987379244888,0.630161524679,-0.351342112149,0.166426122326,1.08170276646,0.33473275839,-0.0485246560225,0.0281521179774,-0.0199095415022,-0.000446876302685,-0.0462715015524,0.103674578572,0.525120669957,0.843420898417,3.67621627584e-11,-4.67143497496e-10,-0.999999990611,0.0,0.0,0.0
2015-08-27 10:10:12.609,42.3492892167,-71.1097913032,5.744289,9.68,0.0076396974866,-0.00375123669348,-1.01782884508,0.637409549425,-0.374027153728,0.170969660184,1.09806491782,0.278915027848,-0.0331539120028,0.0170316392381,0.000433769554767,0.0116171262009,-0.0361582219153,0.0866019697906,0.529082326552,0.843365029834,4.34240846059e-09,5.44054116342e-09,-0.999999974571,0.0,0.0,0.0
2015-08-27 10:10:12.632,42.3492892167,-71.1097913032,5.744289,9.68,-0.0117283803136,-0.0208250300926,-0.986712993196,0.341653370236,0.00838786459693,-0.0869636610132,1.10652997833,0.246963597502,-0.0297421245455,0.0205774335995,0.0145387799887,-0.0175525479206,-0.0321220258554,0.0764224100394,0.531107162709,0.843239570003,4.46240322471e-10,1.6178118567e-10,-1.00000000488,0.0,0.0,0.0
2015-08-27 10:10:12.690,42.3492892167,-71.1097913032,5.744289,9.68,0.0435295123157,-0.0273937744334,-0.989143958867,0.165450829754,-0.0246080593653,-0.0828195025807,1.10453847174,0.216892743651,-0.0123352029525,-0.00978132944868,-0.00689644673407,0.00947896840144,-0.0239050647466,0.0685284831124,0.529177394928,0.845401490169,-4.8740397135e-10,-3.82622461492e-10,-1.0000000299,0.0,0.0,0.0
2015-08-27 10:10:12.764,42.3492892167,-71.1097913032,5.744289,9.68,0.420999626077,0.328212596957,-0.991077609493,0.0111472675578,-0.301256387896,0.470719377027,1.10725450974,0.210182255552,-0.00511208995944,0.0369242791191,-0.0154558687589,0.0369125960203,-0.0209390974561,0.0669707514749,0.53016169151,0.844988197255,-8.05497057943e-10,2.3389334497e-09,-1.00000001004,0.0,0.0,0.0
2015-08-27 10:10:12.836,42.3492892167,-71.1097913032,5.744289,9.68,-0.0574888422466,-0.0699712279102,-0.960844270192,-0.852796412912,0.474246303945,0.0514646820616,1.13029207722,0.215613439572,-0.0269652139056,0.150438259495,0.0608589577354,-0.036215951541,-0.0280514832926,0.0659516376623,0.539806406524,0.838732698331,-2.06692332e-09,-1.56442915566e-09,-1.00000002866,0.0,0.0,0.0
